timestamp_us,gyro_x,gyro_y,gyro_z,accel_x,accel_y,accel_z
8914612,-0.251807,-0.007727,-0.001466,-0.632069,2.557007,-9.691729
8914944,-0.047564,-0.036905,0.024115,-0.895431,2.973599,-9.696517
8915184,0.227426,0.021184,0.043700,-0.952892,3.035848,-9.605537
8915425,0.429538,0.007194,-0.003464,-0.986411,2.686294,-9.835381
8915670,0.382507,0.021184,0.024515,-0.823605,2.035071,-9.610326
8915929,0.057556,0.009726,0.062352,-0.766145,1.819593,-9.811439
8916184,-0.274723,-0.032908,0.133231,-0.967258,1.503559,-10.635044
8917419,-0.250075,0.003997,0.150285,-0.229843,2.312799,-10.840945
8917767,0.291244,0.152150,0.139227,-0.560243,3.495534,-10.793061
8918122,0.523732,0.174799,0.096593,-0.282516,3.447650,-8.667010
8918447,0.217833,0.110848,0.078740,-1.043872,1.441309,-9.557653
8918772,0.108184,0.097392,0.043833,-0.052672,1.977611,-9.064447
8919131,0.106985,-0.072611,0.140426,-1.819593,2.068590,-9.734824
8938381,0.023182,-0.033441,-0.036106,-0.598550,1.948880,-9.112331
8978404,-0.107784,-0.065816,-0.045698,0.019154,2.006341,-9.682152
9018425,-0.027046,-0.092995,-0.048363,0.057461,2.102109,-9.782708
9058418,0.058888,0.008394,-0.043700,-0.268151,2.035071,-9.974244
9098367,0.038637,0.005063,-0.049429,-0.521936,2.082955,-9.969456
9138369,0.033041,0.010259,-0.019985,-0.478840,2.097321,-9.883265
9179335,-0.055957,-0.021051,-0.031709,-0.378284,2.173935,-9.739613
9219333,0.052626,-0.005462,-0.048363,-0.493206,2.197877,-9.782708
9259322,-0.061020,0.011058,-0.020384,-0.368707,1.479617,-9.797073
9299356,-0.058622,0.016787,-0.016254,-0.464475,1.968034,-10.036493
9339346,-0.113513,-0.066216,0.010525,-0.545878,2.231396,-9.926360
9379353,-0.008926,0.032642,-0.001466,-0.296881,2.308010,-9.730036
9419344,0.005729,-0.013590,-0.014123,-0.110133,2.054225,-9.792285
9459357,-0.038237,-0.001332,0.024648,-0.598550,2.288857,-9.907207
9499372,-0.130966,-0.034907,0.029577,-0.464475,1.905785,-9.945514
9539386,-0.089265,0.011458,-0.045032,-0.430956,2.494758,-9.806650
9579426,-0.012124,-0.024781,-0.013590,-0.756568,2.322376,-9.983821
9619347,0.046098,0.011191,0.007194,-0.373495,2.102109,-9.816227
9659370,-0.036505,-0.150152,-0.027046,-0.507571,2.217031,-10.299856
9699383,0.108184,-0.060753,0.056357,-0.703895,1.833959,-9.911995
9739375,-0.168671,-0.128701,0.055424,-0.445322,2.188300,-10.793061
9779420,0.333611,-0.181861,-0.041701,-0.665588,3.284845,-11.271901
9819415,0.317623,-0.248876,-0.016654,-0.794875,2.183512,-11.496957
9859448,0.384905,-0.318423,-0.054758,-0.766145,2.801216,-11.070788
9899476,0.058222,-0.390234,-0.007594,-0.924162,1.206678,-9.749189
9939401,-0.159078,-0.371315,0.033175,-1.024718,2.169147,-9.069236
9980353,-0.145222,-0.276988,0.063551,-0.770933,2.446874,-8.695741
10020360,-0.077008,-0.121507,0.081538,-1.125275,2.705448,-8.987833
10059424,0.107384,0.000133,0.046631,-1.063026,2.456451,-9.437943
10099444,0.225694,0.017453,0.035440,-1.106121,2.537854,-9.686940
10140381,0.299637,0.067015,0.009593,-1.048660,2.264915,-10.055647
10179402,0.332545,0.087933,0.010658,-0.938527,2.073379,-9.969456
10220380,0.128968,0.067415,0.042234,-0.766145,1.867477,-10.093954
10260379,0.224228,0.073544,0.061553,-0.421380,1.465251,-9.868899
10300387,0.164141,0.208107,0.137894,-0.914585,1.637634,-10.386047
10340360,0.320688,0.124571,0.178397,-0.301669,1.704672,-9.782708
10380387,0.026913,0.064351,0.241681,-0.426168,1.283292,-10.055647
10420369,0.087933,0.058355,0.254338,-0.809240,1.470040,-9.902418
10460403,-0.111248,0.009726,0.280851,-0.086191,0.651223,-10.213664
10500492,-0.092862,-0.023315,0.393299,-0.359130,1.072602,-10.199299
10540396,-0.121773,-0.037571,0.454452,-0.430956,1.259350,-10.271125
10580382,-0.094194,-0.108184,0.449522,-0.565032,2.504335,-10.309433
10620387,0.048496,-0.087666,0.384239,-0.421380,1.853112,-10.141838
10660411,0.148553,-0.058755,0.417280,-0.684742,1.000776,-9.821015
10700389,-0.035173,-0.056090,0.388103,-0.603339,1.101333,-9.883265
10740412,0.075942,-0.020251,0.421943,-0.464475,1.460463,-9.758766
10780430,0.150951,0.002931,0.420478,-0.608127,1.709460,-9.840169
10820410,0.156014,0.041835,0.355328,-0.881066,1.709460,-9.782708
10860435,0.110582,0.104986,0.373847,-0.943315,1.446098,-9.830592
10901360,0.048763,0.110582,0.296839,-1.144428,1.465251,-10.002975
10940401,0.185458,0.267395,0.243014,-1.221043,1.551443,-9.911995
10981431,0.337741,0.235819,0.192919,-1.297657,1.182736,-10.457873
11021454,0.272591,0.186923,0.114979,-1.350330,1.355118,-10.141838
11061517,0.312561,0.259668,0.001066,-1.340753,1.441309,-10.165780
11101388,0.395031,0.171735,-0.120708,-1.254562,1.125275,-9.797073
11141392,0.228758,0.112714,-0.175732,-1.086968,1.268927,-9.983821
11181414,0.212104,0.043433,-0.255138,-1.029507,1.379060,-10.065224
11221416,0.143090,-0.010525,-0.323219,-0.833182,1.029507,-9.859323
11261527,0.120708,-0.127902,-0.423142,-0.746991,1.388637,-10.041282
11301436,-0.026513,-0.167738,-0.452587,-0.675165,1.273715,-10.228029
11341404,0.124838,-0.179329,-0.540386,-0.440533,1.364695,-10.328587
11381424,0.101256,-0.237285,-0.573161,-0.397437,1.115698,-10.170568
11421444,0.027579,-0.218100,-0.596876,-0.464475,1.163582,-10.108319
11461418,0.019052,-0.185591,-0.604470,-0.392649,1.082179,-10.299856
11501428,0.160144,-0.145888,-0.627253,-0.004788,0.852336,-9.825804
11541477,0.239017,-0.168005,-0.584752,0.076614,0.603339,-10.012551
11581437,0.141625,-0.109916,-0.557839,0.158017,0.081403,-9.883265
11621552,0.061686,-0.099524,-0.506545,0.383072,0.129287,-9.907207
11662385,-0.021983,-0.099524,-0.425541,0.627281,0.004788,-10.017340
11702369,-0.105386,-0.126969,-0.325884,0.550666,-0.014365,-9.955091
11742392,-0.010525,-0.063418,-0.218100,0.378284,0.148441,-10.055647
11782394,0.123372,-0.035173,-0.109516,0.440533,-0.086191,-9.825804
11822383,0.102055,-0.053959,-0.013057,0.225055,-0.177171,-10.098742
11862407,0.133631,0.010392,0.107651,0.335188,-0.215478,-10.002975
11902399,0.035173,-0.003198,0.246211,0.153229,-0.407014,-10.256760
11942422,0.017587,0.028378,0.325217,-0.225055,-0.019154,-10.347740
11982526,0.026513,0.086467,0.457649,-0.220267,0.000000,-10.534488
12022648,0.009992,0.060753,0.504014,-0.574608,-0.100556,-10.477027
12062533,0.165473,0.112047,0.555974,-0.407014,0.526724,-10.189722
12102459,0.114446,0.148153,0.523999,-0.665588,0.344765,-10.113108
12142479,0.175599,0.109516,0.532525,-0.608127,0.517148,-10.151415
12182404,0.221297,0.108850,0.543983,-0.617704,0.521936,-10.175357
12222454,0.074876,0.150018,0.503614,-0.991200,0.047884,-10.089166
12262412,0.170536,0.147620,0.439663,-0.952892,0.541090,-10.098742
12302413,0.208640,0.091397,0.456850,-1.034295,0.095768,-10.170568
12342503,0.048096,0.044899,0.388902,-1.350330,0.507571,-10.256760
12382430,0.275655,0.124838,0.309763,-1.288081,0.574608,-10.098742
12422422,0.183859,0.048363,0.128835,-1.369483,0.201113,-10.117896
12462553,0.149219,0.038770,0.064484,-1.584962,0.574608,-9.969456
12503390,0.160277,-0.021717,-0.066216,-1.307234,0.172383,-9.821015
12543382,0.034907,-0.021051,-0.160011,-1.063026,0.497994,-9.725247
12583398,0.015188,-0.035839,-0.227559,-1.144428,0.205901,-10.146626
12623467,-0.099124,-0.094861,-0.293109,-1.024718,0.421380,-10.055647
12663419,-0.010792,-0.121773,-0.415415,-0.785298,0.689530,-10.184934
12703397,-0.005729,-0.124971,-0.523599,-0.890643,0.354342,-10.223241
12743438,0.155214,-0.143890,-0.606469,-0.699107,0.373495,-10.165780
12783419,0.125504,-0.128168,-0.576225,-0.311246,-0.181959,-10.223241
12823506,0.114312,-0.156680,-0.604070,-0.512359,-0.033519,-10.419566
12863464,0.099124,-0.159211,-0.661626,-0.277727,-0.536301,-10.295067
12903435,0.072744,-0.144822,-0.631250,-0.158017,-0.541090,-10.314221
12943441,0.132565,-0.151484,-0.638711,-0.167594,-0.440533,-10.156203
12983472,0.068881,-0.166939,-0.569297,-0.287304,-0.565032,-10.347740
13023492,0.166539,-0.125371,-0.471372,-0.134075,-0.761356,-10.050858
13063654,0.139493,-0.110715,-0.466443,0.057461,-0.866701,-10.390836
13103447,0.062219,-0.092462,-0.385571,0.052672,-1.244985,-10.022128
13143490,0.113247,-0.064084,-0.305899,0.440533,-0.876278,-9.955091
13183421,0.041035,-0.049828,-0.150418,0.272939,-1.187524,-9.849746
13223480,0.092063,-0.005596,-0.059554,0.469264,-1.240196,-9.782708
13263468,0.025714,0.041035,0.051028,0.488417,-1.455675,-9.911995
13303431,0.017986,0.029178,0.150018,0.459687,-1.182736,-9.830592
13343439,-0.054358,0.102588,0.222230,0.272939,-1.101333,-9.921572
13383448,-0.068881,0.134297,0.336409,0.339977,-1.130063,-10.137050
13423518,0.005196,0.108051,0.433801,0.459687,-0.842759,-10.050858
13464406,-0.151351,0.073144,0.568764,0.282516,-1.154005,-10.031705
13504392,-0.188522,0.128568,0.627253,-0.143652,-0.502782,-9.993398
13544421,-0.138427,0.144556,0.696799,-0.172383,-0.416591,-10.012551
13584384,-0.188256,0.113913,0.739167,-0.550666,-0.488417,-10.304645
13624419,0.011325,0.075675,0.792459,-0.660800,0.028730,-10.639833
13664425,-0.006795,0.114046,0.779003,-0.814029,-0.124498,-10.553641
13704470,0.148420,0.139893,0.690138,-0.799663,0.296881,-9.758766
13744393,0.068614,0.170936,0.712521,-0.986411,-0.129287,-10.089166
13784394,0.021051,0.138560,0.607668,-0.943315,0.282516,-10.237606
13824388,0.192253,0.133764,0.598208,-1.029507,0.349553,-9.797073
13864422,-0.121507,0.122173,0.448456,-1.278504,-0.272939,-10.194510
13904385,-0.023582,0.111914,0.365587,-1.431733,0.732626,-10.165780
13944420,0.183859,0.132299,0.214369,-1.307234,0.272939,-10.242394
13984414,-0.098191,0.058622,0.114312,-1.503559,0.138864,-10.472239
14024671,0.170403,0.002265,-0.073277,-1.144428,0.919373,-10.117896
14064430,0.085668,-0.047430,-0.187590,-1.302446,-0.177171,-10.472239
14104459,0.283649,-0.055691,-0.286047,-1.134852,0.919373,-10.271125
14144457,0.064217,-0.134963,-0.397562,-0.943315,-0.536301,-10.323798
14184459,0.028778,-0.168404,-0.482963,-1.034295,0.512359,-10.189722
14224420,0.209440,-0.151750,-0.589681,-0.646435,-0.220267,-10.093954
14265467,-0.041302,-0.170136,-0.688006,-0.603339,-0.450110,-10.065224
14304462,0.094594,-0.147221,-0.740633,-0.474052,-0.124498,-9.983821
14345405,-0.025980,-0.159478,-0.773541,-0.349553,-1.082179,-9.979033
14385421,-0.044499,-0.148686,-0.754622,-0.124498,-0.440533,-10.093954
14425400,-0.010525,-0.135629,-0.745562,0.062249,-0.541090,-9.940725
14465418,-0.020917,-0.079806,-0.762482,0.038307,-0.646435,-10.156203
14505426,0.013590,-0.089132,-0.752757,0.229843,-0.723049,-10.122684
14545443,0.101655,-0.057289,-0.668688,0.387861,-0.766145,-10.050858
14585429,0.162942,-0.046631,-0.575159,0.593762,-1.163582,-9.931149
14625414,0.008793,-0.053692,-0.444859,0.761356,-1.244985,-9.940725
14665448,0.032775,0.007594,-0.350665,0.569820,-1.221043,-9.907207
14705399,0.081804,0.049562,-0.231822,0.248997,-1.388637,-9.763555
14745420,0.008926,-0.008527,-0.053959,0.287304,-1.766921,-9.787497
14785451,-0.028511,0.035306,0.061153,0.770933,-1.426944,-10.175357
14825431,0.033574,0.121374,0.190920,0.780510,-1.546654,-10.046070
14865431,-0.057689,0.043700,0.329081,0.541090,-1.628057,-9.935937
14905450,-0.157613,0.071412,0.437931,0.373495,-1.268927,-9.959879
14945447,-0.132565,0.051694,0.529195,0.397437,-0.976834,-10.012551
14985416,-0.118576,0.108717,0.605669,0.172383,-0.766145,-10.127473
15025482,-0.100723,0.070213,0.675349,0.033519,-0.517148,-10.180145
15065552,-0.062752,0.086600,0.704660,-0.143652,-0.909797,-9.945514
15105474,-0.015855,0.117910,0.723979,-0.067038,-0.344765,-10.022128
15145477,0.059954,0.150951,0.723312,0.033519,-0.483629,-10.017340
15185466,-0.216767,0.125770,0.694668,-0.335188,-0.287304,-10.160992
15225457,-0.120974,0.123905,0.668288,-0.483629,0.172383,-10.323798
15265468,-0.074743,0.124571,0.686541,-0.320823,0.038307,-10.175357
15305461,-0.117643,0.108317,0.576891,-0.248997,0.038307,-10.127473
15345490,-0.173734,0.062885,0.575293,-0.497994,0.086191,-10.127473
15385468,-0.162942,0.024781,0.497885,-0.392649,0.474052,-10.371682
15425446,-0.326150,-0.091263,0.445126,-0.761356,0.292093,-10.347740
15465473,-0.153349,-0.065417,0.329614,-1.115698,1.120486,-10.208876
15505475,-0.127502,-0.052760,0.184259,-1.086968,0.636858,-10.362105
15546407,-0.219565,-0.111381,0.064484,-0.976834,1.015141,-10.218452
15586410,-0.123505,-0.098591,-0.023848,-0.919373,1.379060,-10.232818
15626433,-0.124438,-0.078606,-0.120574,-0.761356,0.871489,-10.275913
15666473,-0.144956,-0.068348,-0.225694,-0.799663,1.168370,-10.113108
15706446,-0.067548,-0.116444,-0.331613,-0.622492,0.914585,-10.007763
15746440,-0.064217,-0.059554,-0.360923,-0.636858,0.948104,-10.208876
15786425,-0.089531,-0.097925,-0.425141,-0.660800,0.612916,-10.414778
15826468,-0.092063,-0.137495,-0.429404,-0.497994,0.708684,-9.964667
15866445,-0.085668,-0.112980,-0.423675,-0.435745,0.488417,-10.046070
15906491,-0.204377,-0.115911,-0.456051,-0.426168,0.770933,-10.381259
15946458,-0.140959,-0.094328,-0.439397,-0.656011,1.134852,-10.256760
15986448,-0.089665,0.100190,-0.457516,-0.464475,0.656011,-10.017340
16026442,-0.066349,-0.025447,-0.418746,-0.814029,0.660800,-10.505757
16066464,-0.110982,-0.044366,-0.424475,0.043096,0.588974,-10.089166
16106477,-0.324018,-0.048629,-0.373447,0.004788,0.378284,-10.170568
16146451,-0.181194,-0.041835,-0.336542,0.124498,1.134852,-10.299856
16186475,-0.091130,-0.080871,-0.324685,-0.086191,1.039083,-10.266336
16226473,0.133231,-0.018919,-0.262998,-0.110133,0.699107,-10.247183
16266473,-0.010259,-0.054092,-0.203311,0.004788,0.033519,-10.180145
16306445,0.078473,-0.062752,-0.091663,-0.110133,0.646435,-9.830592
16346433,0.009726,0.021850,-0.037038,0.062249,0.354342,-10.041282
16386442,0.090064,0.010259,0.065949,-0.086191,0.292093,-10.007763
16426492,0.012124,-0.003331,0.176931,-0.043096,0.344765,-9.931149
16466487,-0.071545,0.005596,0.182394,-0.100556,0.737414,-10.122684
16506477,0.044366,0.090064,0.246877,-0.143652,0.823605,-10.156203
16546523,-0.007061,0.032508,0.317490,-0.172383,0.699107,-10.232818
16586500,0.125237,0.070879,0.323885,-0.138864,0.857124,-10.079589
16626568,-0.006262,0.092462,0.413683,-0.373495,0.742203,-10.113108
16666612,0.226893,0.100590,0.449922,-0.354342,1.130063,-10.070012
16706503,0.210639,0.072345,0.417413,-0.598550,0.742203,-10.357317
16746454,0.065816,0.025314,0.465643,-0.641646,0.957681,-10.050858
16786474,0.099257,0.068481,0.394364,-0.770933,1.345541,-10.084377
16827431,0.152550,0.074876,0.405689,-1.010353,1.197101,-10.079589
16866592,0.026646,0.096326,0.320954,-1.321599,1.077391,-9.979033
16907455,0.198781,0.105253,0.254072,-1.158794,1.532289,-10.089166
16947424,0.110982,0.052493,0.172401,-1.053449,0.866701,-9.744401
16987446,-0.054225,0.097659,0.104187,-0.957681,1.388637,-9.883265
17027488,0.271792,0.078473,-0.053959,-1.000776,1.632846,-9.825804
17067448,0.121374,0.045565,-0.155481,-0.857124,1.292869,-10.199299
17107441,0.272325,0.027046,-0.278054,-0.847547,1.283292,-10.251971
17147495,-0.014655,0.006528,-0.333744,-1.058237,0.593762,-10.232818
17187479,0.057156,-0.009992,-0.463911,-0.948104,1.628057,-10.084377
17227627,-0.013723,0.007994,-0.536256,-0.723049,0.718261,-10.342952
17267498,0.055025,0.026779,-0.512141,-0.474052,1.187524,-10.275913
17307478,0.141891,0.033041,-0.643907,-0.383072,0.708684,-10.079589
17347471,0.057689,-0.001865,-0.655897,-0.196325,0.517148,-10.194510
17387484,0.202112,0.021450,-0.719848,0.114922,0.550666,-10.070012
17427552,0.023049,0.002665,-0.670153,0.258574,-0.047884,-10.228029
17467551,0.002665,0.054758,-0.636446,0.512359,0.181959,-10.390836
17507500,0.095527,0.006528,-0.537588,0.885855,0.454898,-10.668563
17547520,0.106851,-0.010925,-0.553975,1.053449,0.766145,-10.534488
17587554,0.314293,-0.031842,-0.566766,1.048660,0.866701,-10.352529
17627591,0.308164,-0.081404,-0.509476,1.436521,-0.225055,-9.840169
17667538,0.242081,-0.025980,-0.456717,1.316811,-0.430956,-9.701305
17707488,0.130167,-0.028245,-0.411018,0.770933,-0.081403,-9.911995
17748435,0.074077,-0.001599,-0.406622,0.430956,-0.368707,-10.007763
17787516,0.021184,0.001066,-0.406089,0.033519,0.205901,-9.945514
17827488,0.111515,0.087666,-0.406355,-0.100556,0.119710,-9.816227
17868481,0.165473,0.154815,-0.409153,-0.191536,-0.090980,-9.768343
17908465,0.032508,0.129900,-0.399960,-0.292093,-0.387861,-10.275913
17948510,0.065417,0.107917,-0.394364,-0.593762,-0.067038,-10.319010
17988494,-0.002798,0.090198,-0.447790,-1.465251,-0.617704,-9.236830
18028509,-0.001599,0.076608,-0.342538,-0.454898,-0.928950,-10.625467
18068469,-0.002265,0.018519,-0.269127,-0.574608,-0.651223,-10.481815
18108465,0.020518,-0.000799,-0.223562,-0.454898,-1.110910,-10.395624
18148480,0.107251,0.013057,-0.138694,-0.220267,-0.689530,-10.596737
18188547,0.256737,0.043966,-0.046364,-0.387861,-1.335965,-10.256760
18228475,0.161876,0.023315,0.146288,-0.038307,-1.091756,-10.084377
18268501,0.205443,-0.019052,0.228492,0.162806,-1.335965,-10.113108
18308474,0.148686,-0.001066,0.414216,0.512359,-1.680730,-10.204087
18348453,0.131233,-0.006129,0.578090,0.612916,-1.498770,-9.964667
18388485,0.026380,-0.083936,0.732106,0.368707,-0.842759,-10.160992
18428474,0.032242,-0.063285,0.764214,0.196325,-0.536301,-10.055647
18468509,0.140293,-0.025447,0.772342,-0.493206,-0.201113,-9.701305
18508466,-0.020518,0.013323,0.788196,-0.301669,-0.416591,-9.509769
18548487,-0.297106,0.049429,0.793525,-0.435745,-0.143652,-10.352529
18588516,0.032375,0.081271,0.755288,-0.972046,0.023942,-10.156203
18628559,0.176265,0.129101,0.614862,-0.239420,0.196325,-9.964667
18668504,0.198914,0.145755,0.534124,-0.837971,-0.373495,-9.629479
18708511,0.184126,0.144289,0.369717,-0.761356,-0.435745,-9.346964
18748518,-0.047963,0.176531,0.301769,-0.450110,-1.450886,-10.041282
18789478,-0.125770,0.137095,0.198248,-0.656011,-0.761356,-10.228029
18828540,-0.056090,0.185458,0.055025,-0.684742,-0.598550,-10.386047
18869446,-0.011058,0.097925,-0.084735,-0.110133,-0.670377,-10.630256
18908483,0.251141,0.113779,-0.235553,0.181959,-0.090980,-10.740389
18948522,0.212637,-0.051427,-0.406222,0.555455,-1.187524,-10.951078
18989483,0.198781,-0.098058,-0.482963,0.890643,-0.871489,-10.850522
19029585,0.408354,-0.147620,-0.589015,1.086968,-1.249773,-10.438720
19069476,0.253273,-0.190521,-0.670953,1.106121,-1.838747,-10.117896
19108663,0.265530,-0.138694,-0.621923,1.072602,-1.805228,-9.964667
19149476,0.299371,-0.195184,-0.565700,1.091756,-1.958457,-9.653421
19189506,0.137761,-0.168005,-0.517737,1.086968,-1.972822,-9.562442
19229465,0.174400,-0.101256,-0.453519,1.101333,-1.814805,-9.485827
19268529,0.172534,0.024648,-0.377444,1.019930,-2.394202,-9.078813
19309468,0.027179,-0.036239,-0.275522,0.766145,-2.394202,-9.481039
19349489,-0.037172,0.025447,-0.155747,0.636858,-2.188300,-9.466674
19389495,-0.130034,0.007461,-0.026113,0.914585,-2.159570,-9.634268
19429514,-0.079006,0.053292,0.108317,0.679953,-1.963245,-9.873688
19469483,0.034240,0.056757,0.185058,0.392649,-1.900996,-10.184934
19509457,0.046364,0.030776,0.327616,0.603339,-2.260126,-9.844957
19549474,-0.124438,0.025181,0.432868,0.325611,-2.379837,-9.825804
19589495,-0.181328,0.048763,0.470839,0.028730,-1.455675,-9.696517
19629493,-0.281651,0.061153,0.498152,-0.143652,-1.728614,-9.950302
19669528,-0.236619,0.094994,0.555308,-0.215478,-0.790087,-10.093954
19709522,-0.178796,0.118309,0.536389,-0.306458,-1.125275,-10.170568
19749497,-0.196516,0.068747,0.479366,-0.675165,-0.512359,-10.371682
19789543,-0.002798,0.068214,0.430603,-0.818817,-0.636858,-10.132261
19829523,-0.190521,0.050894,0.380642,-1.321599,-0.689530,-10.146626
19869550,-0.136828,0.078873,0.248077,-1.024718,0.114922,-9.964667
19909524,-0.113646,0.031043,0.222363,-1.077391,-0.421380,-10.362105
19949514,-0.043567,-0.001332,0.038371,-0.995988,-0.138864,-10.433931
19989652,-0.098191,-0.065683,-0.065816,-0.723049,-0.143652,-10.491392
20029594,0.035839,-0.065150,-0.198515,-0.483629,0.119710,-10.414778
20069521,0.170003,-0.141225,-0.314559,-0.450110,-0.426168,-10.223241
20109553,0.061819,-0.176798,-0.412750,-0.574608,-0.497994,-10.261548
20149515,0.241948,-0.148153,-0.509876,-0.402226,-0.220267,-9.888053
20189613,0.185858,-0.109783,-0.493089,-0.023942,-0.976834,-9.854534
20229548,0.085268,-0.132698,-0.532259,0.105345,-0.981623,-10.098742
20269517,0.033308,-0.082204,-0.554642,0.287304,-1.053449,-9.854534
20310459,0.056357,-0.101922,-0.556107,0.646435,-1.182736,-10.002975
20350464,0.157613,-0.049296,-0.518270,0.593762,-1.249773,-10.232818
20390518,0.258735,-0.047164,-0.489625,1.053449,-1.498770,-10.093954
20430474,0.079539,-0.004663,-0.421144,0.909797,-1.733402,-10.060435
20470462,0.007194,-0.039703,-0.326150,1.158794,-1.704672,-9.974244
20510462,0.051960,-0.005063,-0.231956,1.063026,-1.613692,-10.007763
20550461,0.042501,-0.016121,-0.113380,1.154005,-1.934515,-9.859323
20590576,0.016254,-0.036372,-0.000666,0.804452,-1.819593,-9.706094
20630470,-0.002665,-0.011191,0.166406,0.885855,-1.934515,-9.859323
20669536,0.007328,0.001466,0.264064,0.766145,-1.719037,-9.969456
20710482,-0.055025,0.015988,0.365720,0.612916,-1.742979,-10.117896
20750475,-0.043700,0.039836,0.486028,0.378284,-1.498770,-10.031705
20790525,-0.005462,0.058489,0.501616,0.612916,-1.450886,-10.046070
20830511,-0.157746,0.012257,0.599274,-0.153229,-1.594538,-10.031705
20870534,-0.104320,0.057423,0.605536,-0.244209,-0.521936,-9.902418
20910516,-0.062219,0.046764,0.558106,-0.708684,-0.986411,-10.271125
20950525,-0.152283,0.060620,0.573694,-1.120486,-0.134075,-10.146626
20990492,0.150285,0.091930,0.486960,-0.732626,-0.210690,-9.931149
21030571,0.121640,0.097925,0.381841,-0.986411,-0.569820,-10.098742
21070485,0.093129,0.009459,0.209706,-1.101333,-0.517148,-10.314221
21110501,-0.043833,0.007727,0.088466,-0.823605,-0.799663,-9.983821
21151495,-0.112580,-0.041701,-0.020651,-0.938527,-0.215478,-10.165780
21190563,-0.018519,-0.093795,-0.148420,-0.857124,-0.153229,-10.433931
21230529,-0.042634,-0.085934,-0.210106,-0.675165,-0.411803,-10.117896
21270563,0.042234,-0.118709,-0.333611,-0.641646,-0.234632,-10.074800
21310662,-0.004130,-0.093795,-0.398495,-0.464475,-0.588974,-10.108319
21350513,0.010392,-0.129900,-0.496420,-0.378284,-0.153229,-10.079589
21390554,0.090597,-0.115245,-0.549446,-0.253785,-0.708684,-10.113108
21430537,0.118443,-0.041435,-0.654299,-0.004788,-0.890643,-10.122684
21470544,0.153349,-0.071945,-0.643374,0.325611,-0.962469,-10.199299
21510532,0.177997,-0.023449,-0.578357,0.411803,-1.106121,-10.108319
21550538,0.072744,-0.042501,-0.542118,0.469264,-1.781286,-10.007763
21590544,-0.016254,-0.066616,-0.449922,0.842759,-1.656788,-9.883265
21630574,0.048763,-0.054225,-0.336276,0.914585,-1.628057,-9.911995
21670537,-0.029044,-0.005729,-0.216101,0.924162,-1.905785,-10.031705
21710520,-0.087799,-0.018253,-0.081271,0.780510,-1.968034,-9.835381
21750536,-0.058755,0.052360,0.032242,0.766145,-1.608904,-9.840169
21790603,0.100590,0.116311,0.179729,0.727837,-1.455675,-10.204087
21830527,-0.030776,0.064750,0.239683,0.924162,-1.800440,-10.065224
21870524,-0.118043,0.061953,0.338541,0.761356,-1.355118,-9.974244
21910570,-0.097792,0.086867,0.416881,0.550666,-1.288081,-10.199299
21950549,-0.124704,0.054758,0.440862,0.684742,-1.312023,-10.137050
21991507,-0.130700,0.075942,0.534524,0.316035,-1.441309,-10.366894
22031515,-0.187323,0.041835,0.606202,0.349553,-1.077391,-10.007763
22070619,-0.143490,0.092729,0.571962,0.129287,-0.608127,-9.974244
22111500,-0.170003,0.009459,0.560770,-0.062249,-0.794875,-10.261548
22151501,-0.300303,0.009060,0.537322,-0.459687,-0.325611,-10.553641
22191630,-0.106185,-0.028778,0.499884,-0.842759,0.411803,-10.223241
22271516,0.138960,0.029311,0.338141,-1.197101,0.234632,-10.184934
22431531,0.106585,-0.018386,-0.106052,-0.914585,0.000000,-9.916783
22471509,0.150418,-0.039436,-0.201312,-1.240196,0.205901,-9.993398
22511548,0.210505,-0.045565,-0.333744,-0.742203,-0.454898,-9.701305
22551547,0.018652,-0.103387,-0.377178,-0.799663,-0.502782,-9.825804
22591632,-0.085135,-0.124838,-0.502015,-0.727837,-0.311246,-10.309433
22631541,-0.015055,-0.070346,-0.605403,-0.493206,-0.081403,-10.194510
22671533,0.017720,-0.116311,-0.658695,-0.550666,-0.023942,-10.228029
22711546,0.184525,-0.112580,-0.728509,-0.296881,-0.301669,-10.208876
22751532,0.245545,-0.115645,-0.761683,0.263362,-0.536301,-10.266336
22791526,0.329747,-0.117110,-0.755821,0.177171,-1.259350,-10.156203
22831598,0.185458,-0.142824,-0.673750,0.215478,-1.599327,-10.146626
22871562,0.061286,-0.159345,-0.586351,0.488417,-2.054225,-10.338163
22951592,0.051827,-0.183193,-0.350931,0.588974,-2.102109,-10.232818
22991563,-0.029577,-0.162276,-0.214502,0.541090,-1.929727,-10.386047
23031611,0.138960,-0.110582,-0.109916,1.058237,-1.958457,-10.304645
23071568,0.160943,-0.065150,0.018253,0.804452,-1.929727,-9.696517
23111514,0.179596,0.000266,0.113646,0.593762,-2.130840,-9.777920
23151580,0.078473,0.007328,0.284449,0.718261,-2.173935,-9.610326
23191625,-0.064884,0.047697,0.413417,0.344765,-2.015918,-9.572019
23231564,0.038237,0.170669,0.542917,0.454898,-1.742979,-9.801862
23271568,0.052093,0.175865,0.599674,0.354342,-2.044648,-9.658210
23311579,0.035706,0.172135,0.736103,-0.201113,-1.350330,-10.055647
23351565,0.170136,0.143757,0.748626,-0.502782,-1.632846,-9.600749
23391568,-0.177997,0.129101,0.765147,-0.588974,-1.431733,-9.734824
23472530,-0.317357,0.141492,0.735037,-0.991200,-0.512359,-10.285490
23592510,-0.012923,0.086467,0.419012,-1.383849,0.268151,-10.290278
23631606,0.197982,0.075542,0.293109,-1.800440,0.277727,-10.189722
23672510,0.431669,0.063018,0.132165,-2.035071,-0.181959,-10.026917
23712501,0.011458,0.032242,-0.070746,-1.450886,-0.708684,-9.902418
23752517,-0.287646,-0.032908,-0.130966,-1.513135,-0.430956,-9.983821
23792538,-0.091796,-0.052626,-0.285648,-1.158794,0.124498,-10.443508
23832618,0.157080,-0.073410,-0.427006,-0.924162,-0.225055,-10.472239
23872540,0.052626,-0.075009,-0.527196,-0.656011,-0.732626,-10.472239
23912564,-0.025714,-0.105519,-0.638444,-0.373495,-0.612916,-10.175357
23952536,-0.146954,-0.158412,-0.583153,-0.502782,-1.082179,-10.189722
23992569,-0.228625,-0.108051,-0.612064,-0.378284,-0.474052,-9.868899
24032542,-0.032375,-0.078740,-0.612730,-0.225055,-0.421380,-9.988609
24072539,-0.032642,-0.099257,-0.605403,-0.043096,-0.866701,-10.017340
24112521,0.077541,-0.088599,-0.560904,0.014365,-0.641646,-10.060435
24152551,0.212104,-0.038371,-0.517737,0.148441,-1.340753,-9.983821
24192574,0.130966,-0.023449,-0.488426,0.474052,-1.441309,-10.290278
24232588,0.062086,-0.055957,-0.366919,0.612916,-1.671153,-10.084377
24272547,0.261533,-0.027312,-0.269927,0.536301,-1.417367,-10.213664
24312541,0.240616,0.073011,-0.193985,0.464475,-2.111686,-10.333375
24352524,-0.035706,0.008260,-0.024781,0.397437,-2.159570,-9.825804
24392560,0.003064,-0.011325,0.079139,0.368707,-1.728614,-9.921572
24432512,0.056623,0.081671,0.153216,0.584185,-1.915361,-9.792285
24472566,-0.086067,0.073943,0.283516,0.110133,-1.790863,-9.821015
24512531,-0.001865,0.133231,0.363188,0.253785,-1.335965,-9.945514
24552552,-0.019319,0.179729,0.428205,0.272939,-1.374272,-9.706094
24592532,-0.103254,0.180129,0.569031,0.105345,-1.379060,-10.127473
24632691,-0.041035,0.228492,0.564101,0.057461,-1.149217,-10.050858
24672623,-0.138161,0.140825,0.596077,-0.067038,-1.331176,-10.156203
24713537,-0.274723,0.120574,0.617793,-0.349553,-0.972046,-10.285490
24753551,-0.165207,0.121773,0.553309,-0.497994,-0.469264,-10.266336
24793544,-0.189721,0.055691,0.559172,-0.928950,-0.268151,-10.414778
24832548,0.016787,0.062086,0.458449,-0.962469,0.277727,-10.500969
24873532,0.005063,0.052227,0.379309,-0.890643,-0.225055,-10.079589
24913538,-0.025181,0.036372,0.262599,-0.962469,0.043096,-9.830592
24953561,-0.025980,0.009859,0.143890,-1.067814,-0.114922,-10.022128
24993520,0.018786,0.004397,0.035173,-0.909797,0.081403,-10.156203
25033540,0.020784,-0.049828,-0.072744,-1.158794,0.248997,-10.386047
25073564,0.094461,-0.058089,-0.193319,-0.895431,-0.086191,-10.266336
25113568,0.185858,-0.020518,-0.338541,-0.905008,-0.129287,-10.309433
25153607,0.140959,-0.106052,-0.407954,-0.746991,-0.430956,-10.223241
25193587,0.121107,-0.124704,-0.506812,-0.550666,-0.541090,-10.218452
25233595,0.144956,-0.098325,-0.554375,-0.478840,-0.636858,-10.180145
25273617,0.106851,-0.082870,-0.603937,-0.292093,-0.608127,-10.108319
25313586,0.148420,-0.143890,-0.653766,-0.191536,-0.526724,-9.840169
25353615,0.108850,-0.135763,-0.701596,-0.488417,-0.603339,-10.046070
25393590,0.115245,-0.063951,-0.740233,-0.210690,-0.517148,-10.065224
25433586,0.199980,-0.092995,-0.776338,-0.158017,-0.828394,-10.146626
25473648,0.174933,-0.091663,-0.762083,-0.028730,-1.268927,-9.892841
25513666,0.172401,-0.065550,-0.775139,0.134075,-1.307234,-9.911995
25553607,0.156680,-0.082870,-0.762882,0.416591,-1.589750,-9.931149
25593749,0.144689,-0.060354,-0.719982,0.407014,-1.862689,-9.988609
25633635,0.085401,-0.099524,-0.631250,0.694319,-2.111686,-9.974244
25673650,0.016920,-0.077674,-0.597009,0.842759,-2.087744,-10.218452
25714544,0.045565,-0.100590,-0.468441,0.699107,-2.331953,-10.041282
25754567,0.070746,-0.056623,-0.297372,0.742203,-2.389413,-10.050858
25793613,0.037838,-0.034374,-0.195583,0.991200,-2.226608,-9.902418
25833632,0.076075,0.033308,-0.065550,0.761356,-2.135628,-9.811439
25873614,0.074343,0.045965,0.112847,0.952892,-2.164358,-9.744401
25914578,0.097259,0.108583,0.229025,0.737414,-2.140416,-9.911995
25953585,0.179462,0.112181,0.270859,0.761356,-2.255338,-9.672575
25993566,0.036106,0.125770,0.427273,0.656011,-2.398990,-9.725247
26034541,-0.112847,0.088199,0.487227,0.737414,-2.322376,-9.950302
26074602,-0.193585,0.097392,0.539320,0.469264,-1.929727,-10.065224
26114542,-0.092196,0.104986,0.616195,0.536301,-1.675941,-10.132261
26154538,-0.175066,0.067681,0.697066,0.177171,-1.690306,-9.931149
26194549,-0.140692,0.051960,0.681478,-0.052672,-1.307234,-9.979033
26234588,-0.203844,0.123772,0.711055,-0.220267,-1.034295,-9.782708
26274630,-0.235953,0.061686,0.649236,-0.569820,-0.679953,-9.801862
26314591,-0.252873,0.019585,0.595677,-0.579397,-0.363919,-10.213664
26354573,-0.172401,0.058888,0.512407,-0.512359,-0.282516,-10.113108
26394604,-0.277787,-0.020251,0.427806,-1.077391,-0.641646,-9.883265
26434578,-0.259268,-0.011591,0.373447,-0.905008,0.114922,-9.921572
26474592,-0.379309,-0.095260,0.273391,-1.120486,-0.541090,-10.251971
26514657,-0.324951,-0.094194,0.087400,-1.230620,0.464475,-10.204087
26554614,-0.073144,-0.081538,-0.025314,-1.082179,0.392649,-10.534488
26594645,-0.027312,-0.075409,-0.141225,-1.115698,0.359130,-10.515334
26634602,0.174266,-0.118709,-0.239816,-1.091756,0.177171,-10.261548
26675544,0.022383,-0.125904,-0.315891,-1.063026,-0.162806,-10.304645
26715563,-0.074210,-0.149619,-0.374247,-0.684742,-0.248997,-10.055647
26755575,-0.044632,-0.152417,-0.426207,-0.756568,-0.325611,-10.295067
26795569,0.037571,-0.107651,-0.490025,-0.478840,-0.153229,-10.352529
26835546,0.071012,-0.111914,-0.482164,-0.521936,-0.502782,-10.184934
26875546,0.153882,-0.087799,-0.495753,-0.258574,-0.325611,-10.089166
26915574,0.042900,-0.096859,-0.493622,-0.339977,-0.905008,-10.132261
26955629,0.107118,-0.067681,-0.459914,-0.047884,-0.526724,-10.122684
26995564,0.258735,-0.067548,-0.425940,-0.004788,-0.948104,-9.873688
27035589,0.078606,-0.073810,-0.350798,0.143652,-1.101333,-10.007763
27075558,0.140825,0.007727,-0.267129,0.263362,-1.259350,-9.873688
27115551,0.046098,-0.040502,-0.158678,0.349553,-1.690306,-9.883265
27155600,-0.034240,0.017720,-0.058355,0.143652,-1.556231,-9.797073
27195562,-0.012391,0.065550,0.020251,0.392649,-1.221043,-10.046070
27235564,-0.057156,0.046897,0.124438,0.402226,-1.584962,-10.237606
27275552,-0.114979,0.005596,0.175332,0.158017,-1.307234,-10.189722
27315558,-0.153216,0.033708,0.215302,0.268151,-0.952892,-9.907207
27355609,-0.136429,0.036106,0.295107,-0.019154,-0.881066,-10.074800
27395600,0.062485,0.099257,0.431802,-0.134075,-0.569820,-9.907207
27435586,0.120308,0.104054,0.486827,-0.105345,-0.861913,-10.117896
27475585,-0.011325,0.103787,0.517204,-0.392649,-0.871489,-10.055647
27515572,-0.066882,0.104587,0.596343,-0.440533,-0.684742,-10.103531
27555597,-0.146688,0.082337,0.632315,-0.239420,-0.684742,-10.041282
27595629,-0.210239,0.058355,0.637112,-0.555455,-0.454898,-10.170568
27635760,-0.245145,0.046364,0.599674,-0.325611,-0.052672,-10.275913
27675694,-0.153616,-0.017054,0.530527,-0.531513,0.306458,-10.002975
27715664,-0.107384,0.016254,0.500550,-0.646435,0.368707,-10.146626
27755647,-0.239017,0.006662,0.425940,-0.775721,0.373495,-9.993398
27795607,-0.332945,0.034507,0.346002,-1.230620,0.727837,-10.180145
27835621,-0.053159,0.112447,0.273657,-1.110910,0.928950,-9.753978
27875595,-0.003597,0.057822,0.191587,-1.063026,0.363919,-10.117896
27915623,0.005729,0.063951,0.057423,-0.794875,0.608127,-10.261548
27956591,-0.092462,0.035440,-0.038504,-0.991200,0.507571,-10.477027
27996573,0.064217,0.010792,-0.166539,-0.861913,1.096544,-10.515334
28036599,0.138028,-0.009459,-0.255937,-0.555455,0.550666,-10.328587
28076555,0.081671,0.019718,-0.387303,-0.790087,0.814029,-10.333375
28116574,0.281251,-0.005995,-0.472838,-0.330400,0.287304,-10.304645
28156640,0.021983,-0.055957,-0.502548,-0.368707,-0.129287,-10.204087
28196587,0.069280,-0.044766,-0.541585,-0.450110,0.876278,-10.208876
28236631,0.085534,-0.063685,-0.602472,-0.306458,0.134075,-9.907207
28276647,0.011858,-0.104453,-0.617527,-0.258574,0.110133,-9.907207
28316577,0.106052,-0.074609,-0.650435,-0.454898,0.095768,-9.878476
28356615,0.029044,-0.050361,-0.684009,-0.363919,-0.004788,-10.084377
28396645,0.208640,-0.032908,-0.659628,-0.191536,0.062249,-9.988609
28436622,0.230357,-0.009726,-0.632449,-0.172383,-0.430956,-10.271125
28476599,0.301236,-0.039170,-0.639244,0.028730,-0.584185,-10.007763
28516598,0.295107,-0.005729,-0.547181,0.062249,-1.163582,-10.127473
28556636,0.319755,-0.006395,-0.501083,0.445322,-0.852336,-10.295067
28596619,0.273657,-0.048496,-0.423409,0.421380,-1.584962,-10.347740
28636611,0.069946,-0.106319,-0.253006,0.402226,-1.781286,-10.275913
28676595,-0.026646,-0.128568,-0.123372,0.521936,-1.517924,-9.696517
28716609,-0.081005,-0.071945,-0.040103,-0.081403,-1.264138,-9.892841
28756632,0.012923,-0.020118,-0.026113,0.253785,-1.149217,-9.691729
28796634,0.086334,-0.017986,0.073277,0.062249,-1.072602,-9.873688
28836598,0.111515,0.061553,0.175332,0.148441,-1.082179,-9.662998
28876620,0.244613,0.109116,0.243946,0.038307,-1.053449,-9.730036
28916597,0.423675,0.199980,0.312161,0.416591,-1.039083,-10.113108
28956624,0.777804,0.240616,0.457783,-0.335188,-1.125275,-9.610326
28996749,0.635113,0.247277,0.569697,0.114922,-1.934515,-10.539276
29036631,0.250874,0.174799,0.587150,0.038307,-2.758120,-10.419566
29076625,-0.309230,0.045299,0.673217,-0.004788,-2.159570,-9.701305
29117565,-0.221830,0.050361,0.678680,-0.052672,-0.852336,-10.055647
29156704,0.216501,0.092063,0.616328,-0.019154,-0.924162,-10.443508
29196630,0.377444,0.040769,0.609000,-0.162806,-1.714248,-10.644621
29237588,0.438198,0.093129,0.575159,-0.713472,-1.905785,-10.074800
29277585,-0.232622,0.036772,0.612064,-0.114922,-2.466028,-9.672575
29317575,-0.449522,0.026380,0.601672,-0.383072,-1.163582,-9.686940
29357642,-0.271525,0.040902,0.626054,-0.995988,-1.307234,-10.079589
29397600,-0.355594,-0.004530,0.544649,-0.885855,-1.460463,-10.165780
29437573,-0.201446,0.035440,0.378243,-0.588974,-0.292093,-10.711659
29477600,-0.081271,0.015322,0.335077,-0.636858,-0.656011,-10.687717
29517577,0.043433,0.041035,0.229824,-0.957681,-0.598550,-10.232818
29557592,0.173334,0.059288,0.152816,-1.154005,-0.914585,-9.768343
29597626,0.132965,0.092196,0.115911,-1.192312,-0.617704,-9.897630
29637582,0.086600,0.072078,0.010392,-0.967258,-0.919373,-9.279925
29677605,-0.088998,0.085668,-0.082204,-0.995988,-0.727837,-9.576807
29717587,-0.201446,0.052760,-0.226360,-1.010353,-0.742203,-9.835381
29757642,-0.057956,0.041568,-0.306965,-0.632069,-0.248997,-9.902418
29797616,-0.124838,0.079139,-0.383706,-0.344765,-0.699107,-10.208876
29837710,-0.368784,-0.038504,-0.448590,-0.478840,-0.928950,-10.132261
29877624,-0.475502,-0.002132,-0.485228,-0.641646,-0.488417,-10.175357
29917611,-0.167871,0.002531,-0.517470,-0.124498,0.253785,-10.290278
29957656,0.365587,0.031176,-0.577824,-0.531513,0.153229,-10.429143
29997618,0.511342,-0.012790,-0.679879,-0.100556,-0.742203,-10.424355
30037615,0.427006,-0.047430,-0.690671,-0.229843,-1.077391,-10.352529
30077638,0.458582,-0.099257,-0.663625,0.057461,-1.130063,-10.280702
30117664,0.464844,-0.126037,-0.662159,0.162806,-1.335965,-9.955091
30157673,0.526796,-0.085135,-0.606335,0.263362,-1.608904,-9.859323
30197633,0.497219,-0.119775,-0.543717,0.574608,-1.972822,-10.084377
30237679,0.262466,-0.163608,-0.463112,0.641646,-2.624045,-9.696517
30277629,0.100723,-0.146688,-0.433135,0.723049,-2.782062,-9.567230
30317611,-0.105119,-0.140293,-0.304567,0.986411,-2.973599,-9.552865
30357676,-0.041835,-0.062352,-0.188789,0.569820,-2.791639,-9.361329
30397636,0.001066,-0.049029,-0.013190,0.665588,-2.940080,-9.548077
30437611,-0.118176,0.004263,0.081404,0.588974,-2.997541,-9.643845
30477637,-0.183193,0.027179,0.215968,0.296881,-2.628834,-9.725247
30517616,-0.204776,0.057156,0.299371,0.306458,-2.351106,-9.677363
30557659,-0.099257,0.104720,0.390234,0.134075,-1.982399,-10.165780
30597668,0.059288,0.108317,0.443127,0.383072,-1.920150,-10.050858
30638635,-0.049296,0.078606,0.533058,0.272939,-2.149993,-10.156203
30677632,-0.186124,0.069547,0.579556,-0.047884,-2.221819,-9.964667
30717659,-0.278720,0.058089,0.600207,0.119710,-1.738190,-9.868899
30758641,-0.332545,0.064351,0.663625,-0.320823,-1.671153,-10.098742
30798615,-0.187456,0.014256,0.639377,-0.593762,-1.125275,-10.333375
30838766,-0.140559,0.067282,0.637112,-0.780510,-1.158794,-10.204087
30878592,-0.143090,0.042634,0.569297,-1.053449,-0.928950,-10.213664
30918621,-0.058489,0.028511,0.566499,-0.991200,-0.392649,-10.228029
30958645,-0.039703,-0.010925,0.458715,-1.130063,-0.521936,-10.041282
30998675,-0.013723,-0.027845,0.396763,-1.422156,-0.363919,-10.122684
31038623,-0.067149,-0.030510,0.247144,-1.197101,-0.134075,-10.199299
31078616,-0.003464,-0.105386,0.148953,-1.369483,-0.215478,-10.156203
31118629,0.093528,-0.061819,0.001865,-1.369483,-0.268151,-10.213664
31158709,0.101789,-0.126703,-0.143224,-1.264138,-0.541090,-10.184934
31198658,0.162009,-0.184525,-0.260867,-1.326388,-0.215478,-10.352529
31238644,0.178397,-0.209573,-0.384106,-1.197101,-0.478840,-10.041282
31278640,0.116577,-0.141358,-0.495753,-1.163582,-0.632069,-9.935937
31318673,0.069014,-0.134297,-0.542784,-1.106121,-0.785298,-9.806650
31358649,0.035440,-0.111115,-0.654565,-0.861913,-0.809240,-9.787497
31398673,-0.057556,-0.148553,-0.724512,-1.029507,-0.914585,-9.782708
31438745,0.017054,-0.142025,-0.768478,-0.521936,-1.067814,-9.787497
31478682,0.128302,-0.068214,-0.779403,-0.359130,-1.369483,-10.084377
31518680,0.104054,-0.097659,-0.759018,-0.335188,-1.651999,-10.180145
31558719,0.127769,-0.099524,-0.720381,-0.234632,-1.891419,-10.012551
31599611,0.102055,-0.128035,-0.656697,-0.023942,-2.030283,-10.031705
31638698,0.097525,-0.087133,-0.567832,0.086191,-2.178724,-9.892841
31678676,0.118576,-0.080738,-0.486028,0.100556,-2.365471,-9.993398
31719612,-0.102721,-0.101922,-0.402891,0.440533,-2.585738,-10.170568
31759630,-0.163208,-0.064351,-0.328149,0.368707,-2.317587,-9.739613
31799627,-0.034507,-0.036905,-0.201579,0.028730,-2.240973,-10.060435
31839599,0.101389,-0.024648,-0.102588,0.258574,-2.020706,-9.873688
31878725,0.067681,0.035839,0.064084,0.205901,-2.422932,-9.466674
31918657,0.007861,0.084602,0.131233,0.062249,-2.475605,-9.232041
31959608,-0.070613,0.090730,0.294041,0.148441,-2.308010,-9.868899
31999619,-0.102322,0.097126,0.365320,-0.047884,-2.102109,-9.758766
32039643,-0.096992,0.108051,0.424741,0.028730,-2.059013,-9.777920
32079639,-0.133098,0.110848,0.549046,-0.105345,-1.388637,-9.983821
32119627,-0.132565,0.147620,0.602338,-0.354342,-1.503559,-10.132261
32159633,-0.104853,0.121773,0.699730,-0.378284,-1.388637,-10.108319
32199625,-0.156547,0.122040,0.697332,-0.229843,-1.029507,-10.065224
32239644,-0.100057,0.111515,0.669354,-0.363919,-1.082179,-9.969456
32279665,-0.121107,0.095926,0.710789,-0.306458,-1.182736,-10.012551
32319646,-0.161210,0.045299,0.650168,-0.407014,-1.106121,-10.108319
32359674,-0.037438,0.150951,0.628985,-0.521936,-0.699107,-10.093954
32399662,-0.071412,0.087799,0.597009,-0.708684,-0.694319,-10.357317
32439645,-0.030643,0.098724,0.548380,-0.766145,-0.545878,-10.299856
32479643,0.059021,0.084735,0.485894,-0.761356,-0.383072,-10.285490
32519661,-0.001199,0.028645,0.342804,-1.134852,-0.162806,-10.544065
32559644,0.084469,0.034507,0.247943,-1.154005,-0.162806,-10.180145
32599665,0.124038,0.005196,0.110182,-1.216254,-0.311246,-10.122684
32639654,0.134297,0.001998,-0.040103,-1.110910,-0.277727,-9.959879
32679670,0.053959,-0.055025,-0.195450,-1.364695,-0.268151,-9.940725
32719650,0.086201,-0.034240,-0.295907,-1.244985,-0.244209,-9.940725
32760625,0.038504,-0.057822,-0.401293,-1.225831,-0.268151,-10.213664
32800581,0.020651,-0.096593,-0.506812,-0.957681,-0.636858,-9.706094
32840624,-0.050628,-0.090064,-0.561037,-0.713472,-0.507571,-9.988609
32880624,0.055025,-0.048096,-0.625521,-0.727837,-0.670377,-10.127473
32920635,0.130167,-0.061553,-0.657763,-0.612916,-0.818817,-10.060435
32960623,0.089798,-0.099657,-0.755021,-0.277727,-1.278504,-10.208876
33000632,0.012657,-0.116178,-0.743697,-0.263362,-1.149217,-10.524911
33040603,0.080205,-0.195717,-0.682810,-0.110133,-1.398214,-10.457873
33080652,0.044499,-0.194384,-0.657363,0.019154,-1.714248,-10.055647
33120615,0.066349,-0.133498,-0.555974,0.023942,-1.896208,-9.911995
33160653,0.071545,-0.186257,-0.531060,0.076614,-1.814805,-10.012551
33200624,0.025714,-0.145888,-0.423809,0.019154,-1.987187,-9.983821
33240636,0.040103,-0.098058,-0.335210,0.023942,-1.891419,-9.888053
33280617,0.010126,-0.056757,-0.198248,-0.038307,-2.082955,-9.797073
33320632,0.006395,-0.101123,-0.125770,-0.023942,-2.154782,-9.773131
33360631,0.025714,-0.021583,-0.015588,0.014365,-2.130840,-9.797073
33400625,-0.038770,0.061153,0.044632,0.023942,-2.035071,-9.888053
33440606,-0.009060,0.021051,0.171735,-0.287304,-1.886631,-9.868899
33480634,0.011058,0.041435,0.228225,-0.244209,-1.666364,-9.868899
33520609,-0.025447,0.039303,0.329081,-0.205901,-1.819593,-9.854534
33560648,-0.054625,0.054492,0.374913,-0.277727,-1.517924,-10.141838
33600737,-0.024381,0.037704,0.416081,-0.325611,-1.316811,-10.113108
33640673,0.026779,0.081138,0.422077,-0.488417,-1.235408,-10.108319
33680634,-0.015988,0.078207,0.452320,-0.593762,-1.000776,-10.031705
33720653,0.000799,0.061020,0.441262,-0.646435,-0.770933,-10.122684
33760633,0.074876,0.072744,0.382507,-0.699107,-0.699107,-9.998186
33800645,0.128968,0.076608,0.308430,-0.330400,-0.579397,-9.911995
33840653,0.189322,0.160943,0.269527,-0.100556,-0.545878,-10.280702
33880678,0.325617,0.157746,0.166273,-0.129287,-0.713472,-10.055647
33920655,0.036106,0.102322,0.053559,0.095768,-1.120486,-9.662998
33960661,-0.322020,0.037038,-0.007594,-0.339977,-0.905008,-9.624691
34001652,-0.222496,-0.030110,-0.087266,-0.541090,-0.383072,-10.093954
34040723,0.012524,0.001466,-0.142824,-0.526724,-0.689530,-10.156203
34081659,-0.033574,-0.018519,-0.183459,-0.584185,-1.139640,-10.438720
34121660,0.177997,0.024515,-0.142824,-0.617704,-1.283292,-10.500969
34161731,0.214636,0.035306,-0.102322,-0.727837,-1.709460,-10.261548
34201626,0.124838,0.122040,-0.044499,-0.900220,-1.503559,-10.299856
34240663,0.170403,0.121507,0.070746,-0.981623,-1.632846,-10.117896
34281622,0.108583,0.027979,0.195051,-0.775721,-0.967258,-10.228029
34321653,0.130966,0.036106,0.250342,-1.321599,-1.503559,-10.199299
34360765,0.166139,0.030110,0.350265,-1.470040,-1.312023,-9.758766
34401654,0.062752,-0.025181,0.430070,-1.589750,-1.192312,-10.194510
34441675,-0.073011,-0.008926,0.387436,-1.221043,-1.177947,-10.251971
34481681,0.116844,0.020118,0.335743,-0.584185,-1.225831,-10.304645
34521652,0.021850,-0.060087,0.238351,-0.186748,-1.580173,-9.979033
34561689,-0.042900,-0.185458,0.147487,-0.354342,-1.934515,-10.409989
34601642,-0.061686,-0.156680,0.031576,0.134075,-1.695095,-10.103531
34641646,-0.012124,-0.165340,-0.085801,-0.272939,-1.848324,-10.290278
34681672,-0.015455,-0.201979,-0.158145,-0.177171,-1.776498,-10.242394
34721759,-0.135230,-0.208773,-0.195051,-0.287304,-1.790863,-10.165780
34761724,-0.029577,-0.230357,-0.273257,-0.172383,-1.982399,-9.801862
34801672,-0.053292,-0.122306,-0.318289,-0.148441,-2.102109,-9.203311
34841687,0.149219,-0.121107,-0.344403,0.047884,-2.140416,-9.102755
34881702,0.077807,-0.078606,-0.255804,0.435745,-2.523489,-9.720459
34921700,-0.018119,-0.048363,-0.221031,0.301669,-2.576161,-9.586384
34961669,-0.123239,-0.013190,-0.153083,0.488417,-2.389413,-9.528923
35001680,0.018652,0.017453,-0.049828,0.229843,-2.068590,-9.969456
35041654,0.057423,0.043833,-0.002265,0.430956,-2.293645,-9.782708
35081673,-0.057156,0.060087,0.098991,0.019154,-2.303222,-9.744401
35121711,-0.041302,0.068081,0.175199,-0.287304,-1.896208,-9.806650
35161849,0.001066,0.089665,0.201446,-0.689530,-1.685518,-9.686940
35201661,0.019718,0.150685,0.218366,-0.766145,-1.680730,-9.964667
35241700,0.019452,0.116311,0.243014,-1.106121,-1.541866,-10.204087
35281700,0.022116,0.137361,0.318689,-1.125275,-1.254562,-10.122684
35321731,0.120308,0.130966,0.294974,-0.814029,-1.441309,-10.137050
35361693,-0.046897,0.132832,0.284315,-0.794875,-1.604115,-10.065224
35401687,-0.113513,0.086734,0.249009,-0.723049,-1.110910,-9.749189
35441667,-0.113380,0.113513,0.175332,-0.689530,-0.943315,-9.825804
35481683,-0.103121,0.055557,0.164274,-0.761356,-1.244985,-9.682152
35521770,-0.145222,0.069147,0.135096,-0.713472,-1.422156,-9.878476
35561702,-0.089398,0.076208,0.084602,-0.708684,-1.249773,-10.026917
35601686,-0.019052,0.024515,0.052360,-1.039083,-1.221043,-10.587160
35641679,-0.059155,0.006662,0.074210,-1.158794,-1.010353,-10.553641
35682643,0.039969,-0.042900,-0.028911,-1.436521,-0.407014,-10.989386
35722667,0.030110,-0.032508,-0.155481,-1.398214,-0.852336,-10.127473
35762658,-0.009992,-0.044632,-0.210505,-1.575385,-0.670377,-10.026917
35802655,0.018919,-0.036905,-0.255937,-1.527501,-0.818817,-10.002975
35842653,0.050495,-0.077141,-0.356793,-1.067814,-0.852336,-9.859323
35882645,-0.015855,-0.070746,-0.380642,-1.268927,-0.948104,-9.921572
35922692,-0.095793,-0.159877,-0.385038,-1.063026,-1.072602,-10.194510
35962672,-0.006395,-0.148553,-0.356260,-0.684742,-0.780510,-10.165780
36002661,-0.037172,-0.180262,-0.392632,-0.536301,-1.264138,-10.347740
36042675,-0.021317,-0.188922,-0.351597,-0.201113,-1.211466,-10.180145
36082668,-0.064351,-0.178397,-0.338940,-0.383072,-1.450886,-10.026917
36122740,0.039170,-0.162142,-0.314293,-0.320823,-1.182736,-9.873688
36162753,-0.026247,-0.131766,-0.252740,-0.426168,-1.450886,-9.777920
36202697,0.000533,-0.084069,-0.217966,-0.407014,-1.398214,-9.816227
36242661,0.041435,-0.030510,-0.128302,-0.421380,-1.312023,-10.084377
36282676,-0.009593,-0.042234,-0.099923,-0.287304,-1.704672,-9.840169
36322713,-0.036905,-0.046364,-0.063152,-0.656011,-1.484405,-9.773131
36362673,0.021583,-0.063551,-0.033175,-0.598550,-1.422156,-10.065224
36402673,-0.020118,-0.071279,0.062885,-0.603339,-1.532289,-10.055647
36442691,0.043300,-0.028911,0.072078,-0.828394,-1.259350,-10.002975
36482694,0.108983,-0.035972,0.112047,-0.890643,-1.264138,-10.137050
36522728,0.218100,-0.019452,0.118576,-1.230620,-1.177947,-10.184934
36562679,0.108184,0.016654,0.140426,-1.613692,-1.048660,-9.993398
36602714,-0.007727,-0.025181,0.091530,-1.422156,-1.130063,-9.548077
36642680,0.034640,0.036505,0.038904,-1.584962,-0.608127,-9.696517
36682722,0.055424,0.018786,-0.061819,-1.608904,-0.818817,-9.888053
36722847,0.157746,-0.006662,-0.124172,-1.244985,-0.512359,-10.251971
36762755,0.141358,0.013456,-0.227959,-1.120486,-0.871489,-10.108319
36802690,0.052360,-0.091397,-0.238750,-0.962469,-1.197101,-9.959879
36842726,0.063685,0.002665,-0.273923,-0.823605,-1.316811,-10.151415
36882714,0.049029,-0.043034,-0.301902,-0.646435,-1.604115,-10.132261
36922713,0.146155,0.025314,-0.244479,-0.464475,-1.781286,-9.993398
36962775,0.015055,-0.061686,-0.214502,-0.153229,-2.169147,-10.151415
37002718,0.036106,-0.063418,-0.206508,-0.052672,-1.843535,-10.093954
37042746,0.002132,-0.051028,-0.105519,0.158017,-2.188300,-10.017340
37082733,-0.015188,-0.085668,-0.020651,0.052672,-2.035071,-9.988609
37122775,-0.041968,-0.020118,0.048763,-0.138864,-1.953669,-9.993398
37162728,0.028778,-0.033041,0.108850,-0.234632,-1.790863,-9.878476
37202712,0.000666,0.022916,0.213303,-0.181959,-2.106898,-9.811439
37242716,-0.007994,0.037038,0.274590,-0.359130,-1.781286,-9.782708
37282722,-0.014922,0.075142,0.307764,-0.387861,-1.766921,-9.777920
37322750,-0.076874,0.124971,0.357326,-0.435745,-1.728614,-9.768343
37362755,0.043034,0.183859,0.447923,-0.775721,-1.422156,-9.619903
37402723,-0.029844,0.150551,0.410885,-1.015141,-1.671153,-9.639056
37442749,-0.138161,0.176931,0.414349,-1.244985,-1.154005,-9.792285
37483678,-0.307764,0.219565,0.390634,-1.656788,-1.048660,-9.835381
37522740,0.005329,0.238217,0.295240,-1.805228,0.167594,-9.988609
37563695,0.258202,0.243413,0.175466,-1.125275,-0.900220,-10.328587
37603701,-0.042634,0.113913,0.112314,-1.350330,-0.919373,-10.046070
37643690,0.113247,0.077141,0.049296,-1.355118,-0.407014,-10.165780
37683693,0.053426,0.051028,0.005729,-1.177947,-0.967258,-10.342952
37723733,0.006129,-0.029178,-0.076475,-1.340753,-0.526724,-10.395624
37763706,-0.023982,-0.028778,-0.170936,-1.043872,-0.881066,-10.127473
37803694,-0.004796,-0.042501,-0.226227,-0.852336,-0.627281,-10.290278
37843707,-0.025847,-0.076608,-0.256603,-0.766145,-0.909797,-10.319010
37883687,0.016387,-0.096193,-0.301636,-0.574608,-1.024718,-9.897630
37923749,0.030510,-0.127636,-0.350265,-0.469264,-1.187524,-10.117896
37963701,0.030643,-0.127769,-0.327482,-0.359130,-1.412579,-10.180145
38003725,-0.032775,-0.121907,-0.342271,-0.641646,-1.235408,-10.141838
38043713,0.090730,-0.136429,-0.321620,-0.239420,-1.225831,-10.093954
38083715,0.074743,-0.114312,-0.277787,-0.210690,-1.484405,-10.208876
38123729,0.028112,-0.112447,-0.295374,-0.287304,-1.618480,-9.935937
38163705,0.088066,-0.077807,-0.181461,-0.167594,-1.800440,-9.926360
38203763,0.064217,-0.027179,-0.133231,-0.009577,-1.948880,-10.084377
38243723,0.005329,-0.068081,-0.057156,-0.038307,-1.814805,-10.084377
38283782,0.120041,-0.017720,-0.058222,-0.105345,-1.556231,-9.888053
38323773,0.044100,0.019985,0.055691,-0.181959,-1.781286,-9.945514
38363697,0.039570,0.004397,0.123639,-0.330400,-1.699883,-9.476251
38403719,-0.042634,0.074876,0.149619,-0.383072,-1.541866,-9.797073
38443763,-0.046498,0.138427,0.242348,-0.301669,-1.565808,-9.782708
38483845,-0.061819,0.115911,0.326816,-0.416591,-1.489193,-9.725247
38523800,-0.004130,0.158812,0.288312,-0.454898,-1.393425,-9.605537
38563711,-0.108051,0.099657,0.361723,-0.651223,-1.426944,-9.979033
38603758,-0.083136,0.122972,0.373580,-0.689530,-1.163582,-10.098742
38644682,-0.086201,0.111781,0.348799,-0.924162,-1.072602,-10.137050
38684687,-0.019052,0.108317,0.307764,-0.828394,-0.746991,-10.266336
38723741,0.003331,0.058089,0.339074,-0.823605,-0.991200,-10.290278
38764737,-0.049296,0.035839,0.263665,-1.130063,-0.861913,-10.065224
38804684,0.055025,0.031043,0.254072,-0.914585,-0.727837,-10.261548
38844685,0.039170,0.038637,0.148286,-1.091756,-0.804452,-10.261548
38884686,0.126037,0.020917,0.111515,-1.043872,-0.411803,-10.180145
38924747,0.013323,-0.027979,0.060087,-1.168370,-0.742203,-9.892841
38964691,-0.001466,0.003064,-0.063152,-1.221043,-0.177171,-9.878476
39004757,0.020384,-0.035706,-0.144423,-1.115698,-0.837971,-10.007763
39044711,-0.059421,-0.053159,-0.211838,-1.139640,-0.847547,-9.888053
39084760,0.017720,-0.020118,-0.271925,-0.818817,-0.656011,-10.041282
39124772,-0.058888,-0.081804,-0.316158,-0.905008,-0.794875,-10.189722
39164730,0.081538,-0.070746,-0.332412,-0.756568,-0.742203,-10.204087
39204757,0.014389,-0.073410,-0.366919,-0.565032,-1.350330,-10.146626
39244713,-0.036106,-0.110582,-0.352930,-0.493206,-0.857124,-10.065224
39284717,0.056490,-0.102721,-0.372648,-0.301669,-1.383849,-10.093954
39324750,0.014522,-0.055691,-0.334144,-0.311246,-1.182736,-10.050858
39364728,0.020917,-0.093795,-0.350665,-0.306458,-1.517924,-9.983821
39404723,0.017453,-0.049962,-0.317490,-0.248997,-1.460463,-10.041282
39444727,0.094194,-0.064617,-0.281384,-0.019154,-1.374272,-10.113108
39484752,0.009992,-0.043567,-0.210905,-0.239420,-1.814805,-9.993398
39525738,-0.025181,-0.054225,-0.142824,0.143652,-1.541866,-10.141838
39565689,0.024515,-0.000933,-0.106585,0.033519,-1.853112,-10.046070
39604766,0.053026,0.008527,-0.028112,0.086191,-1.752556,-9.931149
39644760,0.085401,0.078074,0.077274,0.134075,-1.699883,-10.002975
39684754,0.037172,0.048763,0.074876,-0.205901,-1.728614,-9.782708
39724760,0.126170,0.102188,0.217966,-0.440533,-1.283292,-9.749189
39765695,0.090730,0.111648,0.238884,-0.301669,-1.575385,-9.969456
39805700,-0.053692,0.100456,0.272191,-0.598550,-1.675941,-9.849746
39845702,-0.042101,0.107917,0.305899,-0.268151,-1.273715,-9.864111
39885726,-0.094994,0.128701,0.363188,-0.430956,-1.144428,-10.165780
39925718,-0.060620,0.086201,0.310162,-0.483629,-1.206678,-10.070012
39965711,-0.014655,0.083136,0.357593,-0.699107,-0.991200,-10.180145
40005716,0.000933,0.127502,0.277787,-0.723049,-1.019930,-9.988609
40045720,-0.036106,0.049828,0.273124,-1.019930,-1.168370,-10.098742
40085755,-0.015988,0.093528,0.259135,-0.814029,-0.952892,-10.199299
40125745,0.007194,0.048230,0.128168,-0.986411,-0.809240,-10.347740
40165741,-0.011591,-0.021983,0.082470,-1.005565,-0.818817,-10.448297
40205721,0.040636,-0.020251,-0.001599,-0.948104,-0.632069,-10.218452
40245747,0.121907,-0.004663,-0.041168,-0.799663,-0.732626,-10.390836
40285738,-0.024648,-0.099391,-0.106452,-0.842759,-1.091756,-10.275913
40325826,-0.001599,-0.068614,-0.160144,-0.900220,-0.727837,-10.132261
40365740,0.054891,-0.129101,-0.190521,-0.881066,-0.694319,-10.309433
40405772,0.027046,-0.133764,-0.234887,-0.952892,-0.574608,-9.811439
40446705,-0.054492,-0.146688,-0.337075,-1.125275,-0.809240,-9.715671
40485755,0.056090,-0.077141,-0.404490,-0.809240,-0.723049,-9.758766
40526721,-0.029444,-0.041568,-0.399827,-0.675165,-1.086968,-9.816227
40566735,-0.037438,-0.058089,-0.426340,-0.608127,-0.981623,-9.883265
40606733,0.002132,-0.084469,-0.419279,-0.248997,-1.235408,-10.424355
40646733,-0.120574,-0.112980,-0.410219,-0.272939,-1.259350,-10.591949
40686717,0.020651,-0.128302,-0.365320,-0.153229,-1.197101,-10.242394
40726722,0.029444,-0.116977,-0.300703,0.076614,-1.900996,-10.141838
40766724,-0.108184,-0.120974,-0.219299,-0.186748,-1.642422,-9.940725
40806733,0.004663,-0.098724,-0.177064,-0.023942,-1.460463,-9.916783
40846770,-0.027579,-0.027712,-0.031043,-0.062249,-1.733402,-9.844957
40886737,-0.071279,0.000133,0.020518,-0.081403,-1.474828,-9.648633
40926808,0.014389,0.047564,0.109649,-0.023942,-1.335965,-9.926360
40966726,0.006395,0.079273,0.151217,0.129287,-1.757344,-9.873688
41006747,-0.061153,0.091397,0.269660,-0.033519,-1.230620,-9.959879
41046767,-0.059155,0.084469,0.308430,-0.095768,-1.335965,-9.763555
41086746,-0.081538,0.147620,0.399161,-0.253785,-1.393425,-9.787497
41126778,-0.105119,0.130833,0.455518,-0.306458,-0.794875,-10.074800
41166755,-0.049429,0.147620,0.508677,-0.502782,-0.804452,-10.055647
41206730,0.018386,0.115645,0.522400,-0.914585,-0.440533,-10.127473
41246750,0.105519,0.135896,0.483363,-0.900220,-0.718261,-9.950302
41286759,0.213703,0.166672,0.462446,-1.091756,-0.268151,-9.327810
41326800,0.499750,0.261933,0.392899,-1.005565,-0.402226,-10.251971
41367766,-0.155881,0.130034,0.338541,-1.235408,-1.249773,-10.371682
41406757,0.027046,0.143224,0.232089,-1.101333,0.167594,-10.620679
41447735,0.042368,0.151750,0.189188,-0.924162,-0.636858,-10.414778
41487718,-0.106851,0.034907,0.144423,-0.737414,-0.517148,-10.314221
41527933,-0.076475,0.009060,-0.024914,-0.885855,-0.191536,-10.314221
41567738,0.013190,-0.046631,-0.090864,-0.756568,-0.584185,-9.983821
41607746,-0.091397,-0.160810,-0.187856,-1.053449,-0.301669,-10.223241
41647750,-0.039303,-0.110715,-0.275522,-0.919373,-0.234632,-10.098742
41687741,0.037571,-0.129234,-0.341338,-0.905008,-0.258574,-10.141838
41727776,-0.013856,-0.161876,-0.418613,-0.790087,-0.651223,-10.079589
41767755,0.059288,-0.104587,-0.437132,-0.512359,-0.689530,-10.060435
41807774,0.073943,-0.111115,-0.457383,-0.272939,-0.991200,-10.237606
41847799,0.042101,-0.142957,-0.453386,-0.162806,-1.154005,-10.180145
41887773,0.082870,-0.113913,-0.485894,-0.402226,-1.268927,-10.065224
41927767,0.106985,-0.117910,-0.403691,-0.100556,-1.321599,-10.333375
41967780,0.038504,-0.120441,-0.356660,-0.043096,-1.527501,-10.093954
42007840,0.057556,-0.103121,-0.278853,0.071826,-1.465251,-9.859323
42047774,0.106718,-0.029311,-0.193985,-0.028730,-1.781286,-9.811439
42087797,0.078873,0.010525,-0.125904,0.162806,-1.786075,-9.825804
42127792,0.043433,0.006129,-0.031043,0.043096,-1.704672,-9.744401
42167782,0.030243,-0.022516,0.051028,-0.028730,-1.594538,-9.859323
42207789,0.039436,0.071545,0.114312,-0.038307,-1.632846,-9.763555
42247800,-0.028911,0.101256,0.200513,0.186748,-1.675941,-9.835381
42288722,-0.085668,0.114579,0.302168,-0.095768,-1.517924,-10.060435
42328747,-0.020917,0.132032,0.382240,-0.177171,-1.244985,-10.074800
42368761,-0.033974,0.135896,0.413949,-0.272939,-1.077391,-9.993398
42408722,-0.040636,0.122306,0.423942,-0.407014,-0.938527,-9.926360
42448730,-0.125637,0.107118,0.330547,-0.689530,-0.632069,-10.031705
42488765,-0.031309,0.122440,0.335343,-0.972046,-0.521936,-10.122684
42528782,-0.088199,0.113646,0.307764,-0.766145,-0.809240,-10.093954
42568812,-0.115645,0.072744,0.214902,-1.307234,-0.545878,-10.151415
42608755,0.022383,0.053026,0.176265,-1.110910,-0.368707,-10.271125
42648766,-0.079672,0.018253,0.105652,-1.225831,-0.756568,-10.228029
42688814,-0.156014,-0.031709,-0.048496,-1.264138,-0.555455,-10.462662
42728774,0.013057,-0.150951,-0.120574,-1.374272,0.047884,-10.496181
42768796,0.161609,-0.109383,-0.255671,-1.154005,-0.541090,-10.256760
42808799,-0.017587,-0.109916,-0.299104,-1.249773,-0.387861,-10.309433
42848799,0.136695,-0.118176,-0.362123,-1.019930,-0.114922,-10.165780
42888796,0.100057,-0.150152,-0.392632,-0.718261,-0.608127,-10.012551
42928790,0.086201,-0.104720,-0.460314,-0.459687,-0.962469,-9.878476
42969729,-0.020784,-0.189188,-0.415548,-0.378284,-0.780510,-10.002975
43008808,0.085534,-0.117776,-0.451254,-0.100556,-0.823605,-9.888053
43048790,0.021983,-0.095660,-0.368917,-0.067038,-1.479617,-9.806650
43089816,0.027979,-0.019452,-0.345735,-0.129287,-1.177947,-10.070012
43128946,0.052893,-0.046764,-0.260201,0.153229,-1.795651,-9.902418
43169764,0.069014,-0.049828,-0.232755,-0.047884,-1.752556,-9.821015
43208814,0.037038,0.018652,-0.146554,0.162806,-1.757344,-9.926360
43249743,0.057156,0.006395,-0.035306,-0.234632,-1.623269,-9.916783
43289786,0.022783,0.013323,0.059288,0.062249,-1.489193,-10.012551
43329771,-0.041168,0.042767,0.097659,-0.253785,-1.474828,-9.959879
43369812,-0.027845,0.082603,0.140159,-0.368707,-1.388637,-9.945514
43409733,0.020784,0.064750,0.181994,-0.191536,-1.058237,-10.026917
43449740,0.041435,0.111248,0.264730,-0.292093,-1.201889,-9.878476
43489803,0.003597,0.108717,0.300570,-0.493206,-0.938527,-10.204087
43529794,0.073277,0.087400,0.303900,-0.708684,-0.775721,-10.429143
43569787,0.094328,0.093662,0.266862,-0.794875,-0.703895,-10.146626
43609761,0.144689,0.047031,0.187456,-1.034295,-0.866701,-9.782708
43649785,0.051294,0.049429,0.166539,-1.101333,-0.656011,-10.141838
43689882,0.111515,-0.001732,0.096326,-1.163582,-0.459687,-9.854534
43729796,0.111914,-0.057023,-0.074343,-1.077391,-0.737414,-9.983821
43769834,-0.015721,-0.084202,-0.107518,-1.010353,-0.536301,-10.098742
43809835,0.094594,-0.136162,-0.220231,-1.235408,-0.464475,-9.983821
43849848,0.032508,-0.169737,-0.239683,-1.139640,-0.842759,-10.103531
43889930,-0.062485,-0.186923,-0.311894,-0.861913,-0.948104,-9.811439
43930749,-0.081804,-0.166672,-0.328815,-1.005565,-0.885855,-10.041282
43969810,0.030110,-0.121773,-0.381041,-0.656011,-1.086968,-10.055647
44010738,-0.033708,-0.067415,-0.375712,-0.770933,-1.288081,-9.883265
44050785,0.027845,-0.121240,-0.393565,-0.517148,-1.240196,-10.280702
44090769,0.017986,-0.081671,-0.314026,-0.186748,-1.613692,-10.261548
44130787,0.033041,-0.070213,-0.325884,-0.052672,-1.766921,-10.184934
44170756,0.069946,-0.059954,-0.191320,0.368707,-2.011129,-10.093954
44210740,0.021850,-0.053959,-0.131499,0.311246,-2.092532,-9.744401
44249793,0.011724,0.005862,-0.065283,0.167594,-1.953669,-9.821015
44289915,-0.067548,0.042368,0.066882,0.339977,-2.102109,-9.864111
44329778,0.014522,0.041568,0.152550,0.114922,-1.853112,-9.955091
44370790,0.060221,0.093795,0.278720,-0.100556,-1.608904,-10.026917
44410805,-0.024115,0.112314,0.345069,-0.186748,-1.666364,-9.859323
44450763,-0.067815,0.152150,0.419412,-0.407014,-1.393425,-9.888053
44490805,0.021850,0.148553,0.508810,-0.684742,-1.431733,-9.792285
44530779,0.025314,0.122972,0.481098,-0.598550,-1.268927,-10.213664
44570771,-0.068614,0.155881,0.488026,-0.694319,-1.216254,-10.108319
44610801,-0.027979,0.117377,0.521734,-0.756568,-0.746991,-10.089166
44650764,-0.003064,0.128568,0.508810,-0.995988,-0.737414,-10.060435
44690869,-0.010792,0.152150,0.445259,-1.015141,-0.823605,-10.137050
44730785,-0.068481,0.034640,0.360657,-1.264138,-0.488417,-10.117896
44770790,-0.086067,0.021983,0.333877,-1.312023,-0.512359,-10.122684
44810793,-0.048096,0.009193,0.206775,-1.355118,-0.148441,-10.347740
44850809,-0.024648,-0.048096,0.125237,-1.120486,-0.330400,-10.251971
44890824,-0.106585,-0.087000,-0.010925,-1.388637,-0.296881,-10.170568
44930806,0.001865,-0.124172,-0.076475,-1.288081,-0.124498,-10.050858
44970858,0.007328,-0.132832,-0.196783,-1.067814,-0.383072,-10.175357
45010884,-0.033441,-0.099657,-0.273657,-1.235408,-0.373495,-10.137050
45050797,0.033441,-0.121907,-0.347867,-0.799663,-0.565032,-10.342952
45090821,0.078740,-0.162409,-0.373714,-0.550666,-0.991200,-10.213664
45130814,0.052360,-0.116977,-0.407021,-0.526724,-0.909797,-10.060435
45170930,0.184259,-0.094194,-0.352796,-0.110133,-1.527501,-9.931149
45211756,-0.009726,-0.025181,-0.363588,0.052672,-1.589750,-10.137050
45250788,0.022649,-0.045432,-0.265130,0.253785,-1.527501,-9.907207
45290806,0.186790,0.078074,-0.205043,0.407014,-1.465251,-9.921572
45330803,0.070346,0.066083,-0.127236,0.699107,-1.800440,-9.758766
45370786,0.144023,0.184792,-0.012923,0.608127,-1.757344,-9.921572
45410795,0.151084,0.185325,0.091130,0.814029,-2.126051,-9.979033
45450877,0.136962,0.221830,0.185058,0.646435,-1.963245,-10.074800
45490863,0.158678,0.230623,0.278453,0.919373,-2.130840,-10.261548
45530822,0.153882,0.264064,0.300037,0.814029,-2.106898,-10.012551
45570862,0.222629,0.336409,0.300303,0.981623,-1.982399,-10.405201
45610852,0.199580,0.334677,0.259135,0.981623,-2.035071,-10.199299
45650808,0.214636,0.355594,0.225427,0.967258,-1.944092,-10.338163
45690947,0.287247,0.351331,0.163874,0.584185,-1.996764,-10.194510
45731801,0.438597,0.361323,0.124038,0.459687,-1.857901,-10.175357
45770846,0.394897,0.422210,0.079939,0.814029,-2.542642,-9.998186
45810845,0.326283,0.432069,0.102188,0.790087,-2.322376,-9.653421
45850887,0.367185,0.421677,0.177064,0.933739,-2.475605,-9.370906
45891064,0.281518,0.457116,0.111381,0.699107,-2.643199,-9.528923
45931866,0.149485,0.276055,0.266995,0.526724,-2.949657,-9.888053
45971820,-0.080205,0.216900,0.272991,0.316035,-2.825158,-9.945514
46011784,-0.054891,0.145888,0.372248,0.004788,-1.996764,-10.132261
46051826,0.145888,0.116844,0.381974,-0.378284,-2.566584,-9.907207
46091772,0.077008,0.130567,0.422210,0.148441,-2.576161,-9.979033
46131775,-0.017720,0.038770,0.440729,0.536301,-2.849100,-9.821015
46171820,0.157080,-0.025447,0.382507,0.507571,-2.418144,-9.744401
46211804,0.177597,-0.061686,0.343470,0.780510,-2.935291,-9.476251
46251825,-0.131499,-0.100323,0.346668,0.541090,-2.901773,-9.744401
46291817,0.029044,-0.205443,0.363988,-0.110133,-2.231396,-9.605537
46331820,-0.039703,-0.146421,0.326017,-0.205901,-2.815581,-9.179369
46371811,-0.111115,-0.174133,0.310828,-0.100556,-2.145205,-9.035717
46411825,-0.060354,-0.125237,0.237818,-0.009577,-2.557007,-9.212888
46451810,-0.229957,-0.073277,0.178263,-0.359130,-2.226608,-8.853758
46491829,-0.036239,-0.025980,0.174400,-0.138864,-2.154782,-9.203311
46531820,-0.195051,-0.040103,0.121107,0.201113,-2.432509,-9.198523
46571833,-0.140293,0.008127,0.028778,0.191536,-1.570596,-10.271125
46611810,-0.225294,-0.037172,0.078207,0.368707,-2.049437,-10.304645
46651822,-0.066882,-0.054758,-0.019452,0.320823,-0.914585,-9.902418
46691814,0.114179,-0.029577,-0.067282,0.220267,-2.078167,-9.682152
46731856,-0.182127,-0.078606,-0.124704,0.162806,-1.489193,-9.610326
46771834,0.099124,-0.040103,-0.137495,0.248997,-1.537078,-10.486604
46811810,-0.088466,-0.078873,-0.132832,0.272939,-2.092532,-9.830592
46851802,-0.044499,-0.081671,-0.144556,0.124498,-1.359907,-9.572019
46891839,0.226227,-0.040902,-0.147487,0.220267,-1.704672,-9.964667
46931923,-0.021583,-0.123905,-0.134297,0.033519,-2.059013,-9.447520
46971844,-0.224228,-0.071545,-0.069680,-0.105345,-2.585738,-9.634268
47012814,-0.353729,-0.092196,-0.027712,0.023942,-1.446098,-10.098742
47051821,-0.325750,-0.074077,0.006662,0.181959,-1.455675,-10.151415
47092778,-0.150551,-0.080205,-0.055691,0.330400,-1.144428,-10.180145
47132843,-0.028911,-0.092329,-0.022116,0.301669,-1.695095,-10.658986
47172831,-0.231289,-0.100323,-0.002132,0.114922,-1.685518,-10.477027
47212802,-0.091796,-0.067948,-0.007594,0.019154,-1.403002,-10.007763
47252773,-0.119242,-0.045165,-0.010658,0.282516,-2.068590,-9.998186
47292807,-0.095127,-0.007061,0.046098,-0.062249,-1.599327,-9.624691
47332847,-0.062086,0.003997,0.091530,0.033519,-1.690306,-9.897630
47372818,-0.286714,-0.021051,0.068481,0.004788,-1.771709,-10.208876
47412831,-0.223296,-0.042767,-0.005063,-0.143652,-0.914585,-10.103531
47452815,-0.081138,-0.007594,0.029178,0.038307,-1.383849,-10.098742
47492826,-0.123639,-0.008527,0.022649,-0.124498,-0.881066,-10.232818
47532819,0.087266,-0.033175,-0.007194,-0.110133,-1.077391,-10.113108
47572871,-0.009859,-0.021450,-0.018386,0.071826,-1.063026,-9.940725
47652850,-0.357859,0.069147,0.018386,-6.794745,-7.115568,-9.165004
47692862,-0.106185,0.006129,0.034907,0.608127,-1.192312,-11.171345
47732899,-0.274190,-0.041968,0.090597,0.339977,4.841076,-8.537724
47772806,0.558639,0.037172,0.012524,0.000000,0.311246,-10.984597
47812846,-0.050628,-0.061420,-0.003331,-0.076614,-2.944868,-10.663775
47852845,-0.033574,-0.061953,0.018919,-0.205901,2.786851,-9.064447
47892833,0.180662,0.025314,0.029977,-0.426168,-0.617704,-10.453085
47932830,0.087266,0.002132,0.038904,0.081403,-1.470040,-10.189722
47972895,-0.008127,0.000266,0.025047,-0.292093,-0.095768,-9.107543
48012848,-0.142824,-0.001332,0.058489,0.239420,-0.344765,-8.686164
48052925,-0.109783,0.131233,0.092596,0.426168,-0.785298,-8.633492
48092869,-0.249276,0.092196,0.091397,0.497994,-0.555455,-9.495404
48133817,-0.124971,0.108450,0.087799,-0.138864,-0.081403,-10.869676
48173795,-0.255005,0.060487,0.088332,0.555455,-1.891419,-12.938266
48213809,-0.104320,-0.143490,0.116977,0.067038,1.383849,-9.763555
48253809,0.220231,-0.089931,0.130300,0.038307,-1.848324,-10.266336
48293861,0.014256,-0.092196,0.063551,0.100556,-0.847547,-9.720459
48333844,-0.095394,-0.000400,0.094861,0.062249,-1.235408,-10.419566
48373817,0.033841,0.012257,0.002798,-1.067814,-1.106121,-11.233594
48413873,0.130567,-0.038904,0.000400,-0.191536,-0.459687,-10.649409
48453810,0.251940,-0.008127,0.008394,0.426168,-1.225831,-9.629479
48493881,-0.004930,0.013323,-0.015588,-0.067038,-0.435745,-10.074800
48533835,-0.029444,0.005729,-0.027845,-0.033519,-0.426168,-10.443508
48573872,-0.043167,0.041968,-0.026913,0.095768,-0.603339,-9.701305
48613878,-0.007461,0.007328,0.007194,-0.852336,3.179500,-9.165004
48653859,0.047564,0.008926,0.001332,-0.119710,-1.359907,-9.706094
48693823,0.074210,0.048896,0.010658,0.119710,-0.579397,-9.390059
48733843,-0.173467,0.046098,-0.054625,-0.062249,-0.814029,-9.801862
48774829,-0.096060,0.038104,-0.006528,0.019154,-0.823605,-10.864887
48814809,-0.075142,-0.041568,-0.015721,0.383072,-0.282516,-10.783484
48854812,0.122839,-0.037704,-0.019718,-0.263362,-0.426168,-9.552865
48893883,0.048496,0.012524,0.043833,0.023942,-0.713472,-10.098742
48934819,-0.029711,0.020651,-0.008394,-0.043096,-0.555455,-10.031705
48974824,-0.114712,-0.007461,0.048763,0.023942,-0.325611,-10.170568
49014858,0.023715,0.034374,0.016787,-0.052672,-0.368707,-10.156203
49054859,-0.075942,-0.041035,0.039037,0.335188,-0.598550,-10.074800
49094837,0.119508,-0.011858,0.022516,0.186748,-0.598550,-10.141838
49134842,-0.110982,-0.046498,-0.063285,-0.095768,-0.895431,-10.065224
49174838,-0.120841,0.107917,0.009193,0.574608,-0.387861,-10.381259
49214845,-0.090064,0.069813,0.010259,-0.526724,-0.794875,-10.544065
49254842,-0.266329,-0.049296,0.004130,0.210690,-0.076614,-10.199299
49294826,-0.282450,-0.022916,0.033574,0.196325,-0.277727,-10.275913
49334910,-0.240216,-0.045832,-0.029178,0.110133,-0.100556,-10.160992
49374864,-0.295640,-0.016254,0.004796,-0.004788,-0.114922,-9.969456
49414884,-0.290044,-0.053292,0.023049,0.052672,-0.119710,-10.199299
49454870,-0.375446,-0.071145,0.010392,0.014365,-0.129287,-9.969456
49494894,-0.751291,-0.141358,0.087400,0.047884,-0.368707,-10.007763
49535808,-1.108351,-0.165207,0.186923,-1.556231,-0.426168,-11.784261
49574904,-1.081838,-0.329747,0.184392,4.074931,-1.824382,-8.394072
49654907,0.155348,-0.461646,0.208773,4.946421,-3.251326,-9.457097
49695870,0.567165,-0.308564,-0.059288,-2.015918,-0.282516,-10.457873
49735810,0.752623,0.228092,-0.050495,-1.503559,1.441309,-8.877700
49775815,0.474303,0.028245,-0.053026,0.196325,0.952892,-8.738836
49815835,-0.091530,0.001199,-0.039570,-0.679953,0.488417,-9.916783
49855880,-0.034240,-0.010925,0.002665,-0.593762,2.078167,-9.950302
49895830,0.065283,0.003864,-0.007594,-0.603339,0.823605,-9.940725
49935860,-0.019452,0.005995,0.006528,-0.593762,1.316811,-10.084377
49975869,-0.045432,-0.014789,-0.029577,-0.632069,1.431733,-10.132261
50015827,-0.143357,0.031176,0.008527,-0.785298,1.541866,-9.801862
50055877,-0.046631,-0.043300,0.005729,-0.708684,1.599327,-10.074800
50095842,-0.037704,-0.043433,-0.029577,-0.732626,1.546654,-9.945514
50135848,-0.067948,-0.030510,-0.001066,-0.622492,1.335965,-9.988609
50175844,-0.114446,-0.057689,0.013989,-0.550666,1.335965,-9.931149
50215930,-0.035440,0.008394,0.006928,-0.852336,1.642422,-9.878476
50255965,-0.001199,-0.009859,-0.047164,-0.545878,1.551443,-10.022128
50295843,0.006662,0.015988,-0.010126,-0.694319,1.628057,-9.969456
50335877,0.016121,-0.014789,-0.001466,-0.785298,1.881843,-9.624691
50376809,0.003597,-0.039703,-0.015188,-0.502782,1.374272,-10.007763
50415852,0.001199,-0.018786,0.011858,-0.598550,1.671153,-9.892841
50456909,-0.012257,-0.013856,-0.014123,-0.684742,1.556231,-10.079589
50495854,0.004663,-0.004130,0.051560,-0.617704,1.422156,-9.969456
50536831,-0.038770,-0.022916,0.055158,-0.579397,1.709460,-10.017340
50576794,-0.028245,0.013989,0.013856,-0.526724,1.647211,-10.026917
50616818,0.005862,-0.000799,-0.017453,-0.737414,1.704672,-9.974244
50656868,0.002531,-0.029844,-0.035440,-0.627281,1.580173,-10.103531
50696828,-0.014655,-0.016121,-0.021317,-0.670377,1.604115,-10.012551
50736833,0.008260,-0.014922,-0.045698,-0.756568,1.599327,-10.036493
50776822,0.034107,-0.002132,0.005596,-0.636858,1.738190,-10.084377
50816822,0.009992,0.001332,-0.022116,-0.598550,1.661576,-10.060435
50856932,0.029311,-0.029044,0.013057,-0.713472,1.599327,-9.983821
50896817,0.000000,0.003064,-0.019718,-0.775721,1.589750,-9.801862
50936900,0.008260,-0.021850,0.045432,-0.646435,1.594538,-10.002975
50976820,0.008127,0.008926,0.030110,-0.588974,1.651999,-9.840169
51016833,0.002132,0.036372,-0.039969,-0.526724,1.675941,-9.940725
51056862,-0.027312,0.011325,-0.028645,-0.531513,1.623269,-9.907207
51096876,0.015855,0.028911,-0.006262,-0.723049,1.920150,-9.911995
51136850,0.024515,-0.007328,0.003064,-0.555455,1.604115,-9.749189
51176877,0.049429,0.021184,0.007994,-0.737414,1.704672,-9.806650
51216914,0.004796,0.017853,-0.023182,-0.569820,1.709460,-9.777920
51256876,0.009326,-0.026913,0.034907,-0.569820,1.733402,-9.873688
51296841,0.008527,-0.044499,0.023182,-0.588974,1.757344,-9.835381
51336867,0.021184,-0.002265,0.000400,-0.584185,1.699883,-9.964667
51377817,0.007594,-0.056224,-0.034640,-0.727837,1.628057,-9.854534
51416874,0.003997,0.000133,0.018253,-0.723049,1.623269,-10.089166
51457921,0.004397,-0.009593,-0.022250,-0.608127,1.680730,-10.007763
51496880,0.039703,0.021051,0.030910,-0.675165,1.714248,-9.892841
51537828,0.016254,-0.013989,-0.004796,-0.689530,1.651999,-9.864111
51577909,0.035040,0.029311,-0.000400,-0.775721,1.810017,-9.849746
51617846,-0.012257,-0.022516,0.006528,-0.565032,1.742979,-9.768343
51657939,-0.003730,-0.020784,-0.014256,-0.703895,1.604115,-9.888053
51697868,0.008926,0.050495,0.005063,-0.641646,1.824382,-9.883265
51737905,0.048896,0.016920,-0.003997,-0.636858,1.647211,-9.792285
51777879,-0.000400,-0.023182,-0.005596,-0.541090,1.661576,-9.983821
51817856,0.008660,-0.020384,-0.023715,-0.665588,1.771709,-9.816227
51857927,0.018253,-0.012391,0.000133,-0.617704,1.829170,-9.859323
51897877,0.008527,0.023715,-0.009726,-0.675165,1.776498,-9.955091
51937868,-0.006129,-0.012257,-0.008394,-0.454898,1.867477,-9.864111
51977860,0.002531,-0.012790,-0.020651,-0.679953,1.580173,-9.864111
52017874,0.005196,-0.024248,0.007594,-0.651223,1.632846,-9.931149
52057906,0.025181,-0.015188,0.024248,-0.560243,1.661576,-9.974244
52097926,0.025047,0.007328,0.012124,-0.622492,1.771709,-9.907207
52137890,0.005862,0.015188,0.022250,-0.708684,1.632846,-9.959879
52179010,0.032109,-0.012923,-0.032908,-0.732626,1.685518,-9.897630
52218859,0.010658,-0.018519,-0.025314,-0.656011,1.556231,-9.888053
52258872,-0.079139,0.000000,0.005729,-0.569820,1.637634,-9.897630
52298858,-0.035440,-0.040902,0.036772,-0.881066,1.824382,-9.955091
52338886,-0.003597,0.006395,-0.045432,-0.507571,1.747767,-9.868899
52378870,0.021983,-0.008793,-0.021317,-0.670377,1.757344,-9.993398
52418850,0.021850,0.000933,-0.035706,-0.737414,1.714248,-9.806650
52458868,0.017853,-0.007461,-0.010126,-0.636858,1.843535,-9.849746
52498873,0.015988,0.002931,-0.015855,-0.742203,1.848324,-9.921572
52538863,0.026913,-0.001865,0.000266,-0.660800,1.752556,-9.907207
52578883,0.032508,-0.006528,-0.024914,-0.780510,1.790863,-9.974244
52618889,0.024115,-0.043433,-0.015588,-0.703895,1.565808,-9.888053
52658971,0.010925,-0.015988,0.017720,-0.670377,1.766921,-9.964667
52698896,0.011591,-0.024914,-0.013590,-0.708684,1.580173,-9.816227
52738860,0.039170,0.028245,0.004397,-0.641646,1.776498,-9.902418
52778887,0.009593,-0.004530,0.011325,-0.641646,1.723825,-9.926360
52819836,-0.012391,0.002132,0.017320,-0.603339,1.790863,-9.926360
52859853,0.004263,0.009726,-0.025314,-0.622492,1.800440,-9.868899
52899843,0.025714,0.008527,0.006395,-0.608127,1.824382,-9.979033
52939845,0.015855,0.020784,-0.013723,-0.584185,1.709460,-9.931149
52979865,0.029844,-0.034240,0.021717,-0.493206,1.709460,-10.050858
53019874,0.038770,-0.011458,-0.001599,-0.742203,1.714248,-9.945514
53059864,0.036106,-0.015055,0.018386,-0.636858,1.795651,-9.983821
53099897,0.007727,0.033574,-0.013057,-0.617704,1.771709,-9.907207
53139907,0.027312,0.008793,-0.019851,-0.723049,1.642422,-9.864111
53179864,0.010792,0.011591,-0.041968,-0.617704,1.656788,-9.859323
53219879,-0.016787,-0.010259,0.000933,-0.756568,1.857901,-9.926360
53259911,0.050495,-0.003864,0.008793,-0.588974,1.733402,-9.897630
53300867,-0.010525,-0.000799,0.023315,-0.598550,1.699883,-9.921572
53340874,-0.022116,-0.017986,-0.003997,-0.574608,1.800440,-9.859323
53380899,0.017054,-0.018519,-0.012124,-0.622492,1.699883,-9.888053
53420857,-0.023848,0.001199,-0.013456,-0.809240,1.766921,-9.849746
53460880,-0.013456,-0.027579,-0.013856,-0.569820,1.838747,-9.753978
53500872,-0.019452,-0.021450,0.000533,-0.656011,1.786075,-9.854534
53540892,-0.021850,-0.010392,-0.006662,-0.579397,1.833959,-9.844957
53580872,-0.047430,0.012257,-0.015721,-0.656011,1.661576,-9.883265
53620867,-0.096326,-0.021317,0.011591,-0.742203,1.939303,-9.830592
53660930,-0.054092,-0.012257,-0.014522,-0.737414,1.920150,-9.964667
53701871,0.032242,-0.048096,-0.010392,-0.536301,2.059013,-9.969456
53740881,-0.009593,-0.042900,-0.000266,-0.804452,1.915361,-9.883265
53780874,0.014922,-0.012391,0.015721,-0.742203,1.996764,-9.873688
53820887,-0.041968,0.040902,-0.016387,-0.876278,1.465251,-9.988609
53860914,0.072345,-0.021450,-0.038371,-0.675165,1.541866,-9.907207
53900943,-0.031842,-0.013057,0.001332,-0.258574,1.872266,-9.950302
53940926,-0.034907,0.039303,0.002531,-0.694319,2.102109,-9.830592
53980938,0.038237,-0.023982,0.004530,-0.512359,1.924938,-9.835381
54020925,0.002531,-0.031975,0.011191,-0.670377,1.833959,-9.964667
54061081,0.037838,0.032508,0.013057,-0.632069,2.015918,-9.844957
54100978,0.003198,0.005995,-0.008926,-0.608127,1.848324,-9.763555
54141878,-0.002132,0.003730,0.000400,-0.670377,1.948880,-9.940725
54181847,0.023982,-0.017587,-0.019319,-0.526724,1.800440,-9.777920
54221882,0.033175,0.033841,-0.036772,-0.847547,2.054225,-9.883265
54261873,0.030243,-0.004796,-0.070613,-0.675165,1.944092,-9.864111
54301904,-0.018386,0.020651,-0.075276,-0.804452,1.857901,-9.830592
54341886,0.050095,0.008260,-0.031709,-0.636858,1.771709,-9.854534
54381868,0.016387,0.004530,0.027845,-0.675165,2.001553,-9.926360
54421934,0.045165,0.006129,0.026646,-0.608127,1.776498,-9.935937
54461919,0.029844,-0.033841,-0.062485,-0.574608,2.059013,-9.988609
54501895,0.023982,-0.034240,-0.042501,-0.627281,1.877054,-9.854534
54541912,0.025980,0.024115,-0.016654,-0.617704,1.862689,-9.897630
54581905,0.012257,-0.036772,-0.039703,-0.612916,1.982399,-9.873688
54621938,0.031309,-0.009859,0.008660,-0.727837,1.968034,-9.873688
54661913,0.015721,0.042368,-0.016121,-0.665588,2.011129,-9.868899
54701959,0.006662,-0.030510,-0.034640,-0.526724,1.853112,-9.974244
54741919,0.006662,0.003597,0.011724,-0.723049,1.948880,-9.911995
54781908,0.025314,-0.029178,0.024781,-0.632069,1.857901,-9.730036
54821958,0.009992,-0.018652,0.012257,-0.703895,2.006341,-9.825804
54862871,0.019185,-0.000266,-0.025047,-0.708684,1.953669,-10.046070
54902900,0.016387,-0.050894,-0.006129,-0.766145,1.944092,-9.758766
54942878,0.023049,-0.003198,0.002398,-0.723049,1.991976,-9.878476
54982931,0.045698,0.026380,0.025047,-0.636858,1.867477,-9.840169
55022893,0.032908,-0.016654,-0.019452,-0.708684,1.896208,-9.787497
55062928,0.002665,-0.005329,0.012257,-0.641646,1.934515,-9.911995
55102893,0.031043,0.018652,-0.023182,-0.641646,1.972822,-9.883265
55142913,0.029577,0.003597,-0.019585,-0.656011,1.829170,-9.830592
55182896,-0.006795,0.035173,0.039969,-0.761356,1.905785,-9.926360
55222986,0.014655,0.020118,-0.010925,-0.622492,1.886631,-9.897630
55262898,0.005596,-0.022783,0.027179,-0.804452,1.939303,-9.902418
55302922,0.008260,0.015855,-0.003331,-0.809240,1.872266,-9.725247
55342909,0.039836,0.007594,0.021450,-0.588974,2.059013,-9.854534
55382995,0.026380,0.015055,0.013856,-0.723049,1.915361,-9.897630
55422957,0.000666,0.004530,-0.005862,-0.689530,2.044648,-9.797073
55462947,0.016787,0.003997,-0.006795,-0.622492,1.944092,-9.950302
55503948,-0.011325,0.002665,0.015855,-0.718261,1.862689,-9.916783
55543048,0.003864,0.006129,0.000799,-0.646435,2.054225,-9.672575
55584761,0.014256,0.002132,-0.036372,-0.627281,2.001553,-9.715671
55624081,-0.010925,-0.030377,0.007994,-0.703895,2.020706,-9.730036
55663912,-0.004530,0.012923,-0.007194,-0.660800,1.929727,-9.840169
55703880,0.055957,-0.014123,0.024248,-0.588974,1.810017,-9.835381
55744059,-0.008127,0.013989,-0.009726,-0.732626,1.877054,-10.012551
55783950,0.012923,0.011191,0.023982,-0.588974,1.920150,-9.883265
55823978,0.003064,-0.010126,0.023049,-0.627281,1.891419,-9.935937
55863918,0.021450,-0.025847,-0.013057,-0.565032,2.006341,-9.763555
55903930,0.019718,-0.004930,-0.015988,-0.608127,1.886631,-9.844957
55944021,0.020251,0.019585,-0.046764,-0.622492,2.049437,-9.768343
55983926,0.044899,0.021450,0.015588,-0.670377,2.015918,-9.792285
56024039,0.035706,0.029178,-0.028378,-0.651223,1.982399,-9.974244
56063912,-0.009992,-0.018652,-0.042368,-0.617704,1.900996,-9.907207
56104873,0.001998,-0.009726,0.028911,-0.526724,1.948880,-9.911995
56144076,0.003864,0.020118,0.002398,-0.622492,1.900996,-9.931149
56183969,0.010925,-0.033974,-0.007994,-0.684742,1.810017,-9.844957
56224893,0.041302,-0.032908,-0.036106,-0.708684,1.920150,-9.926360
56263948,0.018119,-0.034240,0.013989,-0.651223,2.039860,-9.806650
56304860,0.021717,-0.002931,-0.000666,-0.684742,1.939303,-9.859323
56344993,-0.003997,-0.018786,-0.033441,-0.794875,1.972822,-9.849746
56384871,0.016787,-0.007861,-0.027446,-0.656011,1.776498,-9.931149
56424963,0.040636,-0.015588,0.014922,-0.703895,1.872266,-9.763555
56464874,0.021983,-0.007861,0.006129,-0.732626,1.900996,-9.806650
56504902,0.037838,-0.021184,-0.020917,-0.679953,1.867477,-9.835381
56544929,0.008793,-0.008926,-0.009992,-0.612916,1.915361,-9.864111
56584946,0.048896,-0.075276,0.009193,-0.641646,1.944092,-9.854534
56624922,0.018253,0.025047,0.019319,-0.665588,1.819593,-9.844957
56664909,0.011858,0.030643,-0.001998,-0.727837,2.011129,-9.878476
56706007,0.005462,-0.016254,-0.005596,-0.565032,1.896208,-9.892841
56744948,-0.007727,-0.003198,-0.019185,-0.703895,1.929727,-9.696517
56784934,0.039037,0.013590,0.018786,-0.617704,1.891419,-9.849746
56824972,0.035706,0.016787,-0.032375,-0.656011,1.795651,-9.835381
56864914,-0.002798,-0.028911,-0.026779,-0.598550,1.829170,-9.844957
56904931,0.012391,0.041435,0.018652,-0.656011,1.896208,-9.749189
56944907,0.017720,-0.021450,-0.028378,-0.723049,1.905785,-9.782708
56984966,-0.007594,0.017986,-0.021317,-0.588974,2.020706,-9.998186
57024955,0.011858,-0.008660,-0.013989,-0.656011,1.944092,-9.955091
57064946,-0.006528,0.008660,-0.013190,-0.766145,1.862689,-9.816227
57104901,0.013590,-0.016920,-0.023715,-0.699107,1.900996,-9.945514
57144970,-0.007328,0.002398,-0.047830,-0.603339,1.977611,-9.959879
57184942,0.003997,-0.032375,-0.022383,-0.723049,1.910573,-9.844957
57224949,0.019185,-0.030776,0.000666,-0.622492,1.915361,-9.720459
57264914,0.041568,0.012923,-0.004663,-0.660800,1.905785,-9.763555
57305943,-0.009459,0.007594,0.001466,-0.675165,1.934515,-9.777920
57345899,0.009060,-0.014256,-0.017054,-0.713472,2.059013,-9.878476
57385939,0.024115,-0.005196,0.016787,-0.545878,1.829170,-9.993398
57425912,0.020784,0.005862,0.020518,-0.622492,1.853112,-9.840169
57465950,0.033175,-0.012391,-0.007594,-0.603339,1.915361,-9.868899
57505923,0.004530,0.020384,0.029178,-0.775721,1.963245,-9.892841
57546010,0.006395,0.029044,-0.040636,-0.608127,1.968034,-9.730036
57585931,0.014123,0.006662,-0.024115,-0.694319,1.843535,-9.821015
57625935,0.055424,-0.027579,0.035839,-0.727837,1.953669,-9.806650
57665961,0.003331,-0.003464,0.000000,-0.627281,1.843535,-9.864111
57705944,0.022916,-0.021184,-0.026113,-0.651223,1.786075,-9.892841
57745932,-0.002398,0.002265,-0.013989,-0.780510,1.924938,-9.763555
57785942,0.025314,0.022116,0.036772,-0.713472,1.963245,-9.873688
57825957,0.031576,0.017986,-0.009193,-0.598550,1.910573,-9.873688
57865953,-0.012790,0.016521,-0.017853,-0.713472,1.867477,-9.782708
57906943,0.037038,-0.005329,-0.005196,-0.656011,1.829170,-9.835381
57945959,0.006129,-0.043966,-0.022916,-0.694319,1.972822,-9.993398
57985940,0.002531,-0.030377,-0.038637,-0.627281,1.920150,-9.811439
58025961,-0.006129,-0.013190,0.013323,-0.804452,2.011129,-9.854534
58066009,0.006262,-0.023182,0.007861,-0.785298,1.881843,-9.897630
58105948,0.026913,-0.015588,0.017587,-0.593762,1.900996,-9.840169
58146923,0.019319,-0.013057,-0.014522,-0.574608,1.953669,-9.849746
58186977,-0.006662,-0.017187,-0.002265,-0.670377,1.829170,-9.945514
58226915,-0.012923,0.011724,-0.033308,-0.545878,1.814805,-9.897630
58266944,0.011724,-0.001998,-0.015988,-0.641646,1.968034,-9.979033
58306928,-0.014123,-0.011991,0.020917,-0.823605,1.958457,-9.878476
58346910,0.000799,-0.004263,-0.013989,-0.713472,1.867477,-9.873688
58386941,-0.005063,0.020251,-0.022783,-0.679953,1.982399,-10.055647
58426913,0.020118,0.007594,-0.004130,-0.708684,1.872266,-9.935937
58466936,0.022649,0.008926,-0.016787,-0.751779,1.786075,-9.926360
58506952,0.054092,0.002931,-0.023715,-0.560243,2.092532,-9.907207
58546944,0.003730,-0.001066,-0.006928,-0.699107,1.795651,-9.878476
58586925,0.050761,0.035173,-0.028112,-0.608127,1.891419,-9.945514
58626923,0.026247,-0.034240,-0.001599,-0.641646,1.848324,-9.844957
58666986,0.013856,-0.043833,-0.022116,-0.718261,1.939303,-9.916783
58706955,0.063418,0.009992,-0.004130,-0.665588,2.006341,-9.878476
58747063,0.037704,-0.002132,-0.030510,-0.565032,1.867477,-9.854534
58786961,-0.008793,-0.025980,-0.011591,-0.689530,1.833959,-9.830592
58826982,0.033708,0.005196,-0.009726,-0.598550,1.896208,-9.859323
58866998,0.009859,0.003730,-0.034240,-0.766145,2.030283,-9.859323
58907025,-0.006528,-0.000533,0.001199,-0.612916,1.944092,-9.811439
58946976,0.007328,0.002398,-0.017986,-0.670377,1.929727,-9.821015
58987944,-0.005063,0.005462,-0.019185,-0.579397,1.891419,-9.821015
59026992,0.039303,0.041168,-0.013323,-0.699107,1.948880,-9.749189
59066993,0.030243,0.022383,-0.011591,-0.627281,2.015918,-9.849746
59107028,0.017187,0.023982,0.055424,-0.708684,1.996764,-9.840169
59147939,0.047164,0.025714,-0.023582,-0.612916,1.972822,-9.849746
59187945,0.035040,-0.010792,0.024515,-0.670377,1.953669,-9.868899
59227928,-0.032642,0.011058,-0.017054,-0.689530,1.857901,-9.888053
59267968,0.022383,-0.015855,0.009326,-0.641646,1.910573,-9.835381
59307924,-0.019985,-0.031043,-0.015322,-0.660800,1.944092,-9.782708
59347933,0.023848,0.024381,-0.033574,-0.694319,1.857901,-9.969456
59387921,0.005729,0.003730,0.015855,-0.603339,1.963245,-9.844957
59427948,0.031176,-0.013323,-0.042501,-0.565032,1.939303,-9.797073
59467993,0.025714,-0.025580,-0.053559,-0.622492,1.939303,-9.844957
59507941,0.012391,-0.015322,-0.014256,-0.766145,1.900996,-9.730036
59547939,0.013323,0.036106,-0.017587,-0.593762,2.140416,-9.739613
59587934,0.015721,0.036106,-0.026779,-0.565032,1.963245,-9.868899
59627957,0.014522,0.041568,-0.053825,-0.656011,1.896208,-9.854534
59668010,0.012790,-0.012257,0.002398,-0.665588,1.968034,-9.844957
59707997,-0.006795,-0.010925,-0.009326,-0.665588,1.910573,-9.873688
59747957,0.005596,-0.011325,-0.009726,-0.675165,1.742979,-9.911995
59787986,0.004130,0.017720,0.006528,-0.723049,1.867477,-9.974244
59827987,0.024515,-0.010392,-0.026247,-0.689530,1.968034,-9.888053
59868033,0.017453,-0.011858,-0.028911,-0.694319,1.886631,-9.797073
59907954,0.011191,0.027579,0.004930,-0.636858,1.920150,-9.921572
59948037,-0.000666,0.026380,0.009859,-0.588974,1.762132,-9.955091
59987987,0.011858,0.001466,0.000533,-0.684742,1.953669,-9.907207
60028955,-0.001732,0.002132,-0.045299,-0.780510,1.881843,-9.825804
60068047,0.010392,0.028911,-0.003464,-0.679953,1.857901,-9.974244
60107957,0.022116,-0.012391,0.001066,-0.617704,1.881843,-9.701305
60147972,0.053825,0.016387,-0.014655,-0.694319,2.011129,-9.859323
60188940,0.017720,-0.018652,-0.042101,-0.732626,1.934515,-9.739613
60228938,0.021184,-0.035306,-0.028911,-0.651223,1.891419,-9.811439
60268972,0.003198,-0.033041,-0.001865,-0.560243,1.857901,-9.797073
60308936,-0.018386,0.035440,0.007861,-0.708684,1.896208,-9.715671
60348963,0.007994,-0.014922,0.014256,-0.723049,1.838747,-9.744401
60388976,-0.009060,-0.023449,-0.050495,-0.675165,1.948880,-9.816227
60429006,0.010392,-0.027046,0.025047,-0.665588,1.814805,-9.868899
60468941,0.015188,0.031842,-0.010392,-0.641646,1.877054,-9.902418
60508951,0.035972,-0.039570,-0.021983,-0.603339,1.810017,-9.878476
60548969,0.029044,-0.051827,-0.007461,-0.732626,1.958457,-9.840169
60589004,0.003464,0.009859,-0.033041,-0.617704,1.723825,-9.821015
60628974,-0.002665,-0.013456,-0.037571,-0.598550,1.814805,-9.787497
60668971,-0.009859,-0.013723,0.003597,-0.598550,1.810017,-9.844957
60709000,-0.017720,-0.002665,0.003864,-0.794875,1.963245,-9.892841
60749002,0.030643,-0.014922,-0.018919,-0.584185,1.963245,-9.749189
60788972,-0.003331,-0.038504,-0.001599,-0.723049,1.939303,-9.797073
60829086,0.043433,0.011191,-0.025047,-0.617704,1.910573,-9.907207
60868982,0.000000,0.005729,-0.005196,-0.632069,1.977611,-9.854534
60908956,-0.041968,0.020118,-0.001199,-0.665588,1.910573,-9.792285
60948992,0.003198,0.011058,-0.002398,-0.670377,1.810017,-9.873688
60989001,0.006795,0.009060,-0.022516,-0.627281,1.819593,-9.873688
61028970,0.007328,-0.035306,0.007328,-0.598550,1.987187,-9.801862
61068981,0.049029,-0.022783,-0.026646,-0.790087,1.838747,-9.806650
61108980,0.005196,0.025314,-0.040236,-0.646435,2.020706,-9.797073
61149014,0.015855,0.035306,-0.032642,-0.746991,1.958457,-9.979033
61189006,0.015855,-0.006662,-0.021583,-0.694319,1.848324,-9.844957
61228995,0.031842,0.000000,0.010658,-0.742203,1.944092,-9.902418
61269026,0.025714,0.009859,0.001066,-0.636858,1.939303,-9.950302
61309945,-0.002798,0.000799,-0.016521,-0.617704,1.944092,-9.955091
61349975,0.030243,0.016654,-0.011591,-0.565032,1.905785,-9.797073
61389977,0.033175,0.003730,-0.021450,-0.780510,1.968034,-10.036493
61429966,0.036372,0.000133,-0.001865,-0.699107,1.977611,-9.897630
61469988,0.038637,-0.016521,-0.026646,-0.804452,1.838747,-9.763555
61509962,0.023049,-0.031309,0.009193,-0.732626,1.881843,-9.821015
61549998,0.010525,0.084202,-0.001066,-0.679953,1.996764,-9.864111
61590073,0.017054,-0.008793,0.016121,-0.751779,2.006341,-9.825804
61629969,-0.005196,0.000000,0.023582,-0.665588,1.896208,-9.974244
61669977,0.006129,-0.009326,-0.000666,-0.665588,1.915361,-9.787497
61710009,0.028112,0.024248,-0.009726,-0.814029,1.867477,-9.773131
61749980,0.072345,0.017986,0.025980,-0.713472,1.944092,-9.835381
61790135,0.001466,-0.015588,0.011191,-0.684742,1.862689,-9.864111
61830050,0.014789,0.003198,-0.018786,-0.665588,1.853112,-9.940725
61869998,0.013590,0.009193,-0.009992,-0.608127,1.714248,-9.763555
61910953,-0.001332,0.013590,-0.013989,-0.632069,2.030283,-9.821015
61949988,0.012657,0.010792,0.000133,-0.670377,1.867477,-9.835381
61990991,0.026513,-0.016920,0.002132,-0.742203,1.900996,-9.907207
62030977,0.007861,-0.022250,-0.023449,-0.675165,1.877054,-9.730036
62070962,-0.014789,-0.015455,-0.030243,-0.689530,1.771709,-9.892841
62110977,0.014922,0.003597,0.009992,-0.770933,1.881843,-9.878476
62151059,-0.006262,-0.000133,-0.014256,-0.713472,1.900996,-9.773131
62191088,0.024648,-0.001466,0.006395,-0.545878,1.910573,-9.830592
62231002,0.019985,0.005063,-0.033441,-0.665588,1.924938,-9.907207
62270968,0.014123,-0.040502,-0.003597,-0.723049,1.862689,-9.854534
62311011,0.021983,0.011058,-0.009992,-0.536301,1.939303,-9.907207
62351029,0.043433,0.024248,-0.018519,-0.550666,1.968034,-9.955091
62391075,0.029444,-0.010259,-0.043833,-0.641646,1.996764,-9.916783
62431042,-0.000400,-0.010259,-0.002265,-0.584185,1.996764,-9.821015
62471023,0.049296,0.022783,-0.018519,-0.541090,1.838747,-9.763555
62511147,0.003597,-0.041568,-0.005729,-0.612916,1.867477,-9.921572
62551056,0.000266,-0.003064,0.005596,-0.531513,1.905785,-9.825804
62592045,0.025580,-0.023715,-0.006528,-0.684742,2.011129,-9.993398
62630989,0.054891,0.027579,0.009593,-0.612916,1.877054,-9.902418
62671960,0.010126,-0.000933,-0.039836,-0.684742,1.905785,-9.811439
62711975,0.018519,0.016654,-0.014655,-0.723049,1.987187,-9.931149
62752041,0.000799,-0.019851,-0.014123,-0.737414,1.991976,-9.854534
62792053,0.044632,-0.020651,-0.029178,-0.641646,1.982399,-9.873688
62831983,0.034374,0.017986,0.019851,-0.751779,1.838747,-9.821015
62871970,0.015855,-0.003864,0.013989,-0.526724,1.948880,-9.955091
62912000,0.038504,-0.019185,-0.013856,-0.684742,1.910573,-9.835381
62952018,0.031709,0.006262,-0.007594,-0.790087,1.953669,-9.830592
62992033,0.032775,-0.025580,-0.022250,-0.550666,1.862689,-9.792285
63032023,0.016920,-0.029311,0.009060,-0.723049,1.948880,-9.940725
63072018,0.047031,0.007194,0.003064,-0.703895,1.991976,-9.878476
63112007,0.020251,0.004930,0.000533,-0.584185,1.958457,-9.825804
63152008,0.030377,0.024914,-0.040236,-0.641646,1.915361,-9.825804
63192996,-0.036106,0.049562,-0.010925,-0.588974,1.915361,-9.979033
63232954,0.027046,-0.009459,-0.015455,-0.694319,1.867477,-9.840169
63272994,-0.007194,-0.016387,-0.006395,-0.555455,1.896208,-9.892841
63312951,0.031043,-0.039170,0.002798,-0.636858,1.948880,-9.840169
63353011,-0.000400,-0.013590,-0.031443,-0.708684,1.776498,-9.840169
63393006,0.031443,-0.037438,-0.029577,-0.727837,2.059013,-9.926360
63433035,0.011858,-0.007061,-0.015588,-0.670377,1.920150,-9.964667
63472980,0.011991,0.020651,0.017187,-0.732626,1.829170,-9.892841
63513014,0.031842,-0.028645,0.019585,-0.852336,1.934515,-9.821015
63552953,0.016387,0.022116,-0.033041,-0.521936,1.963245,-9.710882
63593004,0.011591,-0.017986,-0.025447,-0.416591,1.920150,-9.916783
63633038,0.021850,-0.007727,0.027979,-0.684742,2.001553,-9.892841
63673023,0.012124,-0.023049,-0.016521,-0.641646,1.857901,-10.002975
63712990,0.015455,-0.000666,-0.009992,-0.684742,1.900996,-9.940725
63753013,0.047564,0.007061,0.016121,-0.670377,1.939303,-9.892841
63792976,0.013323,0.004397,-0.018253,-0.665588,1.900996,-9.873688
63833014,0.043966,0.016654,0.027579,-0.675165,1.857901,-9.902418
63872971,0.018919,0.009459,-0.025181,-0.493206,1.819593,-9.777920
63913027,0.043567,-0.013057,0.009593,-0.684742,1.829170,-9.864111
63952980,0.006795,-0.007861,0.005995,-0.560243,1.958457,-9.921572
63993979,0.026513,-0.000266,-0.024115,-0.713472,1.857901,-9.773131
64033031,0.009326,-0.032508,0.040236,-0.636858,2.059013,-9.916783
64073036,0.037038,0.016787,0.001599,-0.761356,1.829170,-9.806650
64113997,-0.005995,0.014256,-0.005729,-0.588974,1.920150,-9.758766
64153956,0.006262,0.015455,-0.018386,-0.703895,1.996764,-9.801862
64193975,-0.005729,-0.041302,-0.030243,-0.632069,1.915361,-9.811439
64234052,0.031176,-0.004397,-0.004130,-0.713472,1.848324,-9.907207
64273994,0.013989,0.032375,-0.023049,-0.636858,1.977611,-9.902418
64313969,0.003464,0.011191,0.005729,-0.780510,1.924938,-9.964667
64353982,0.011058,-0.004263,-0.006129,-0.660800,1.963245,-9.792285
64393995,0.006262,-0.019718,0.016121,-0.622492,1.996764,-9.696517
64434022,0.023182,0.003730,-0.005063,-0.703895,1.857901,-10.012551
64474044,0.009459,0.034374,-0.010658,-0.646435,1.896208,-9.844957
64513996,0.010925,0.016121,-0.000133,-0.670377,1.924938,-9.811439
64553989,0.023049,0.000533,-0.025447,-0.689530,1.776498,-9.888053
64594022,0.041168,0.015055,-0.001066,-0.703895,1.991976,-9.907207
64634105,0.038637,0.017187,-0.015455,-0.565032,1.872266,-9.777920
64674003,0.034907,0.008793,-0.018652,-0.689530,1.963245,-9.907207
64714020,0.020651,-0.009992,0.010792,-0.651223,1.862689,-9.988609
64754013,-0.003331,-0.052893,0.013590,-0.651223,1.977611,-9.864111
64794036,0.002931,0.039170,0.021051,-0.684742,1.915361,-9.892841
64834095,0.049962,-0.023049,0.038637,-0.651223,1.829170,-9.859323
64874038,0.017853,0.024515,-0.025181,-0.694319,1.800440,-9.835381
64914991,0.015721,0.010525,-0.012790,-0.617704,1.905785,-9.816227
64955030,0.030110,0.030776,-0.028778,-0.502782,1.991976,-9.854534
64995012,0.024115,0.004130,-0.004263,-0.742203,1.977611,-9.844957
65035074,0.031842,-0.027312,-0.020651,-0.483629,2.020706,-9.854534
65074977,0.019985,0.006262,-0.011724,-0.531513,1.982399,-9.883265
65115008,0.020518,-0.014922,0.006795,-0.679953,1.853112,-9.897630
65155039,-0.004796,-0.010925,0.019319,-0.770933,1.948880,-9.821015
65195012,0.028112,0.053292,0.003198,-0.641646,2.063802,-9.911995
65235047,0.000133,0.021317,-0.003064,-0.689530,1.939303,-9.816227
65275003,0.028911,0.035306,0.025047,-0.684742,1.939303,-9.873688
65315025,0.023848,-0.002398,-0.011058,-0.665588,1.881843,-9.897630
65355066,0.013057,0.022116,0.020651,-0.627281,1.972822,-9.888053
65395027,0.014789,0.024781,-0.015455,-0.536301,1.982399,-9.840169
65435050,0.007461,0.014655,-0.023049,-0.699107,1.958457,-9.907207
65475029,-0.005995,-0.015322,0.002265,-0.646435,2.020706,-9.892841
65515045,0.006262,0.036372,-0.023449,-0.770933,1.915361,-9.811439
65555057,0.020384,-0.011325,0.023315,-0.780510,1.877054,-9.873688
65595995,0.004130,-0.028645,-0.015055,-0.536301,1.867477,-9.744401
65636006,0.034107,-0.008127,-0.007461,-0.713472,1.953669,-9.753978
65675994,0.041568,-0.007061,-0.011591,-0.584185,1.771709,-9.797073
65716033,0.024648,-0.021850,0.002798,-0.636858,2.001553,-9.734824
65756036,0.008926,0.013057,-0.004530,-0.694319,1.896208,-9.859323
65796021,-0.011991,-0.025447,0.027712,-0.632069,1.953669,-9.849746
65835999,0.032908,0.001466,0.019185,-0.713472,1.915361,-9.945514
65876018,0.021717,0.006129,-0.019052,-0.579397,1.695095,-9.859323
65916038,-0.010392,0.034907,-0.003997,-0.746991,1.810017,-9.959879
65956028,0.026513,-0.003597,-0.020518,-0.684742,1.877054,-9.806650
65996013,0.011591,-0.007328,-0.017587,-0.718261,1.987187,-9.907207
66036017,-0.011191,0.019052,-0.016787,-0.703895,1.752556,-9.715671
66076010,0.029977,-0.046231,-0.018119,-0.684742,1.891419,-9.835381
66116026,0.043034,-0.020917,-0.043966,-0.799663,1.881843,-9.864111
66156105,0.026380,-0.005596,0.008660,-0.723049,1.838747,-9.974244
66196037,0.023182,-0.000400,0.016654,-0.670377,1.838747,-9.931149
66236071,0.033175,-0.030776,0.006928,-0.622492,1.862689,-9.811439
66276050,0.035440,-0.015988,0.008394,-0.550666,1.891419,-9.844957
66316127,0.008260,-0.033041,-0.011458,-0.746991,1.963245,-9.835381
66356089,0.000933,0.000933,-0.016654,-0.699107,1.934515,-9.773131
66396079,0.025447,0.008260,-0.021051,-0.579397,1.924938,-9.983821
66437012,0.013057,-0.034107,-0.014922,-0.608127,1.929727,-9.734824
66477048,0.004930,-0.016920,0.007727,-0.608127,1.905785,-9.840169
66517045,0.025847,0.019851,0.044233,-0.627281,1.838747,-9.840169
66557061,0.021317,0.009859,-0.002398,-0.684742,1.987187,-9.854534
66597109,-0.003331,-0.032775,-0.009459,-0.679953,1.805228,-9.753978
66637044,0.019718,0.004263,-0.048230,-0.679953,1.877054,-9.902418
66677094,0.002132,0.014922,0.009193,-0.569820,2.035071,-10.022128
66717033,0.007328,0.028245,0.018786,-0.775721,1.968034,-9.878476
66757135,0.039436,-0.007061,-0.016787,-0.828394,1.915361,-9.773131
66797061,0.052626,0.001332,-0.034107,-0.785298,2.011129,-9.988609
66837040,0.013856,0.013590,-0.021717,-0.555455,1.920150,-9.964667
66877298,0.016787,0.042900,-0.006928,-0.651223,2.068590,-9.773131
66917090,0.019052,0.010259,0.012524,-0.579397,2.011129,-9.883265
66957277,-0.020384,-0.006795,-0.010392,-0.588974,1.848324,-9.797073
66997088,-0.017720,-0.005329,-0.035173,-0.569820,1.924938,-9.744401
67037091,0.022649,0.052760,0.003597,-0.689530,1.857901,-9.897630
67077082,0.019718,0.008127,-0.014522,-0.679953,2.073379,-9.777920
67118033,0.023449,-0.019052,-0.023582,-0.608127,1.776498,-9.830592
67158042,0.035573,-0.054092,-0.008127,-0.746991,1.829170,-9.792285
67198087,-0.018386,-0.013723,-0.013456,-0.622492,1.920150,-9.969456
67238034,0.015588,-0.013723,0.011058,-0.560243,2.106898,-9.821015
67278167,-0.000933,0.020784,-0.016920,-0.694319,1.900996,-9.782708
67318079,0.007061,-0.026247,-0.029711,-0.632069,1.910573,-9.888053
67358045,0.047031,-0.022250,-0.003730,-0.656011,1.953669,-9.739613
67398064,0.024115,0.000666,-0.017453,-0.665588,1.877054,-9.758766
67438063,0.040636,0.014389,0.020917,-0.622492,1.819593,-9.878476
67478028,0.000400,-0.016387,0.021850,-0.670377,1.939303,-9.945514
67518042,0.056224,0.006795,0.017054,-0.627281,1.776498,-9.792285
67558100,0.044100,-0.029311,0.000266,-0.751779,1.857901,-9.955091
67598098,0.029577,-0.002665,0.012124,-0.555455,1.848324,-9.777920
67638065,-0.009326,-0.028911,-0.013723,-0.790087,1.853112,-9.849746
67678045,0.043567,0.024115,-0.046897,-0.689530,1.838747,-9.950302
67718093,-0.000799,-0.002398,-0.018386,-0.689530,1.877054,-9.787497
67758190,0.002798,-0.015588,-0.030110,-0.679953,1.924938,-9.935937
67798089,-0.009593,0.013456,-0.011724,-0.588974,1.824382,-9.883265
67838077,0.006528,0.013323,0.012124,-0.708684,1.944092,-9.782708
67878079,0.018386,-0.021983,-0.033708,-0.703895,1.862689,-9.888053
67918110,-0.007061,0.011724,0.008527,-0.675165,1.881843,-9.835381
67958110,0.001865,0.034907,0.006262,-0.646435,1.814805,-9.792285
67999022,-0.014123,0.011325,-0.011191,-0.656011,1.987187,-9.873688
68038108,0.031043,0.007994,0.024914,-0.550666,1.886631,-9.983821
68079058,0.030377,0.005862,-0.000400,-0.641646,1.829170,-9.773131
68119047,0.016920,-0.002132,-0.014256,-0.603339,2.130840,-9.888053
68159052,0.012790,-0.011058,-0.018519,-0.612916,1.881843,-9.849746
68199155,0.000933,-0.009992,-0.030377,-0.622492,1.771709,-9.782708
68239037,0.002398,0.010392,0.005063,-0.842759,2.025495,-9.931149
68279028,0.005196,0.022916,0.021051,-0.660800,1.991976,-9.878476
68319052,0.031975,-0.001066,0.015055,-0.660800,1.685518,-9.844957
68359107,-0.006395,-0.049828,-0.030110,-0.469264,1.805228,-9.720459
68399126,0.006129,-0.047564,0.000533,-0.483629,2.073379,-9.844957
68439085,0.005329,-0.006262,-0.016121,-0.445322,1.944092,-9.730036
68479123,0.016521,-0.022116,-0.022516,-0.675165,1.972822,-9.940725
68519118,0.012524,-0.005729,-0.004663,-0.689530,1.968034,-9.792285
68559133,0.002132,0.005329,-0.038504,-0.746991,2.039860,-9.868899
68599093,0.002531,-0.005995,0.003597,-0.713472,1.829170,-9.849746
68639091,0.016387,-0.017054,0.019585,-0.727837,2.073379,-9.801862
68679242,0.031043,0.011191,-0.010126,-0.694319,1.977611,-9.988609
68719090,-0.019985,-0.033308,0.025847,-0.632069,1.833959,-9.825804
68759178,0.027446,0.003198,0.040769,-0.684742,2.039860,-9.873688
68799117,0.013323,0.045965,-0.001332,-0.670377,1.924938,-9.797073
68840031,0.007194,-0.015855,-0.041302,-0.713472,1.982399,-9.787497
68880027,-0.004796,-0.023315,0.039703,-0.871489,1.924938,-9.945514
68920030,0.023049,0.010525,-0.012124,-0.656011,2.044648,-9.902418
68960037,0.043966,-0.007194,0.001599,-0.593762,1.920150,-9.868899
69000110,0.011591,-0.015322,-0.045165,-0.627281,1.929727,-9.758766
69040124,-0.009326,-0.011724,0.011858,-0.603339,2.001553,-9.777920
69080110,0.011058,-0.013989,-0.019319,-0.598550,1.829170,-9.892841
69120040,0.030643,0.020118,-0.014522,-0.598550,1.771709,-9.911995
69160029,0.033308,0.006795,0.012524,-0.526724,1.853112,-9.849746
69200071,0.013590,0.052626,-0.027979,-0.699107,1.719037,-9.888053
69240060,0.032508,-0.008793,0.016654,-0.703895,1.853112,-9.777920
69280059,0.039303,-0.004796,0.019718,-0.756568,1.948880,-9.945514
69320059,0.003064,0.025447,0.030910,-0.612916,1.977611,-9.730036
69360080,0.008127,0.032908,0.019452,-0.497994,1.900996,-9.974244
69400094,-0.005729,0.033308,-0.013723,-0.723049,1.953669,-9.935937
69440060,0.023449,-0.013590,-0.014922,-0.459687,1.910573,-9.888053
69480067,0.019052,-0.014123,0.006795,-0.651223,2.015918,-9.854534
69520155,0.009060,0.026913,-0.007461,-0.641646,1.872266,-10.007763
69560088,0.004530,0.008660,0.010792,-0.694319,1.924938,-9.883265
69600122,0.004930,0.001332,-0.018519,-0.598550,2.035071,-9.749189
69640094,0.025181,0.016654,-0.028378,-0.521936,2.054225,-9.701305
69680074,0.025047,-0.028911,-0.028911,-0.656011,2.015918,-9.911995
69721079,-0.009992,0.025980,-0.030510,-0.689530,1.920150,-9.821015
69760126,0.035706,0.014922,0.010792,-0.665588,1.843535,-9.926360
69801067,0.022916,0.010658,-0.038237,-0.689530,1.972822,-9.811439
69841048,0.003198,-0.047297,-0.003331,-0.579397,1.891419,-9.763555
69881037,0.041302,0.017720,0.025847,-0.584185,2.255338,-10.017340
69921037,0.002665,0.029711,0.000533,-0.775721,1.853112,-9.610326
69961074,0.040636,-0.022783,-0.042368,-0.565032,0.957681,-9.514558
70001098,0.027046,0.009060,-0.028378,-0.713472,1.924938,-9.935937
70042171,0.020784,0.006662,0.000666,-0.579397,1.857901,-9.878476
70081143,0.044233,0.010392,-0.012657,-0.694319,1.838747,-9.964667
70122668,0.007594,-0.015455,-0.022516,-0.608127,1.810017,-9.897630
70161339,0.029178,-0.023715,-0.004796,-0.703895,1.948880,-9.816227
70201146,0.015322,-0.050761,0.017187,-0.799663,1.953669,-9.773131
70241091,0.000000,-0.036106,-0.020251,-0.651223,1.877054,-9.787497
70281085,-0.019052,0.013723,-0.029711,-0.656011,1.886631,-9.979033
70321083,0.002265,0.034773,-0.019718,-0.521936,1.915361,-9.816227
70361172,0.027579,0.037571,-0.030643,-0.742203,1.900996,-9.782708
70401074,0.016254,0.000933,0.001066,-0.775721,1.843535,-9.873688
70441091,-0.003864,0.013057,0.012391,-0.622492,1.862689,-9.821015
70481084,-0.025047,-0.012257,-0.043833,-0.684742,1.891419,-9.935937
70521144,0.020118,-0.002398,0.066216,-0.560243,1.963245,-9.897630
70561182,0.032375,0.009060,-0.029044,-0.612916,2.049437,-9.825804
70602086,-0.013989,-0.024648,-0.001998,-0.837971,2.020706,-9.749189
70641098,0.004930,-0.026380,0.013989,-0.593762,1.939303,-9.911995
70682079,-0.001998,-0.039969,-0.051161,-0.574608,1.958457,-9.859323
70722074,0.005596,-0.003064,-0.022516,-0.660800,1.900996,-9.816227
70762073,-0.007727,-0.047830,-0.007861,-0.603339,1.896208,-9.739613
70802051,0.030910,-0.020651,0.004796,-0.521936,1.833959,-9.907207
70842060,0.023582,0.021850,-0.033308,-0.469264,1.790863,-9.940725
70882066,0.011724,-0.032242,-0.019718,-0.699107,2.020706,-9.907207
70922133,0.066482,-0.017187,0.002931,-0.646435,2.049437,-9.835381
70962131,0.005862,-0.011591,-0.037571,-0.675165,1.963245,-9.864111
71002148,-0.046231,-0.003597,-0.020251,-0.555455,2.039860,-9.270349
71042093,0.047830,0.003597,-0.004397,-0.622492,1.618480,-9.883265
71082062,-0.013856,0.032242,0.019985,-0.656011,1.685518,-9.629479
71122118,-0.204776,-0.028112,0.016654,-0.809240,1.671153,-9.792285
71162186,-0.329747,-0.033041,-0.018119,-0.871489,2.331953,-9.758766
71202168,-0.444326,-0.078473,-0.018919,-0.770933,1.972822,-9.835381
71242159,-0.372248,-0.044899,0.013856,-0.785298,2.504335,-9.983821
71282209,-0.306032,-0.045299,-0.010658,-0.603339,2.489970,-9.672575
71322214,-0.172801,-0.012923,-0.041968,-0.636858,3.088520,-9.648633
71362127,-0.075542,0.005329,0.005995,-0.732626,2.518700,-9.811439
71402112,-0.070213,0.015322,-0.009726,-0.799663,2.786851,-9.629479
71442090,-0.047830,0.024515,-0.010126,-0.852336,2.772486,-9.552865
71482100,-0.048496,0.008660,0.009193,-0.881066,2.901773,-9.600749
71522153,0.049296,-0.018652,0.001732,-0.804452,2.767697,-9.744401
71562129,0.006262,0.017720,0.014922,-0.766145,2.595315,-9.658210
71603049,-0.014655,0.006262,-0.004397,-0.742203,2.767697,-9.605537
71643085,-0.034374,-0.015721,-0.022916,-0.833182,2.619257,-9.581595
71683110,-0.066482,0.000000,-0.032375,-0.794875,2.753332,-9.572019
71723113,-0.097259,-0.001466,-0.007328,-0.804452,2.691083,-9.667787
71763127,-0.211971,-0.037838,-0.015188,-0.785298,2.935291,-9.519346
71803107,-0.425541,-0.020384,-0.020651,-0.737414,2.681506,-9.619903
71843128,-0.525864,-0.096193,-0.002531,-0.799663,3.399766,-9.356541
71883156,-0.682277,-0.087666,-0.022250,-0.852336,3.327940,-9.131485
71923169,-0.441528,-0.029044,-0.012923,-0.981623,3.806781,-9.414001
71963244,0.078873,0.029044,-0.006795,-0.761356,3.907337,-9.308656
72003101,-0.024914,0.021583,-0.008660,-0.723049,3.639187,-9.174581
72043116,0.010658,-0.001998,0.034640,-0.933739,3.514688,-9.294291
72083131,0.025314,-0.022116,-0.033574,-0.746991,3.667917,-9.346964
72123139,0.006795,-0.039303,0.002265,-0.938527,3.687071,-9.323022
72163113,0.015588,0.003064,-0.006928,-0.876278,3.782839,-9.241618
72203128,0.010126,-0.022250,-0.001732,-0.837971,3.782839,-9.375694
72243145,-0.005329,-0.002931,-0.035706,-0.603339,3.739743,-9.337387
72283109,0.026913,-0.016920,0.025980,-0.995988,3.811569,-9.332599
72323186,0.011458,-0.015322,-0.012923,-0.818817,3.677494,-9.265560
72363135,0.010658,0.003331,-0.020118,-0.991200,3.778050,-9.227253
72403152,-0.002531,0.003198,0.013323,-0.890643,3.629610,-9.212888
72444084,-0.010126,0.004663,0.015721,-0.986411,3.854665,-9.241618
72484090,0.018253,-0.027845,-0.032242,-0.871489,3.749320,-9.184157
72524241,0.035440,-0.019052,-0.014123,-0.924162,3.715801,-9.284714
72564087,0.009726,0.028778,-0.017187,-1.063026,3.730166,-9.366117
72604075,0.045432,-0.006395,-0.013057,-0.981623,3.711013,-9.342175
72644116,0.016787,-0.020518,-0.010525,-0.852336,3.715801,-9.327810
72684146,0.036239,0.047830,-0.012257,-0.761356,3.859453,-9.126697
72724187,0.031576,-0.024648,-0.017453,-0.924162,3.715801,-9.251195
72764101,0.027312,-0.012524,0.027845,-0.780510,3.768473,-9.289502
72804107,0.041035,0.011724,-0.030910,-0.833182,3.825934,-9.232041
72844866,0.021983,0.003331,-0.007061,-0.861913,3.845088,-9.284714
72884160,0.032375,-0.007461,0.023315,-0.852336,3.921702,-9.375694
72924153,0.009459,-0.008260,-0.008660,-0.866701,3.801992,-9.193734
72964100,0.018519,0.012923,-0.026380,-0.885855,3.701436,-9.294291
73004112,0.003997,0.028245,0.006395,-0.895431,3.773262,-9.346964
73044131,0.012257,0.032908,-0.014789,-0.900220,3.615245,-9.270349
73084167,0.019851,0.001332,0.001066,-0.933739,3.754108,-9.222465
73125101,0.027845,-0.015588,-0.017720,-0.833182,3.691859,-9.208099
73165076,0.034240,-0.053026,-0.020917,-0.828394,3.620033,-9.222465
73205121,0.034640,-0.002931,0.022250,-0.866701,3.773262,-9.299079
73245125,0.025047,0.013057,-0.058622,-0.866701,3.739743,-9.193734
73285108,0.016121,-0.016121,-0.018386,-0.895431,3.816358,-9.308656
73325136,0.005596,-0.009326,-0.012790,-0.890643,3.749320,-9.275137
73365114,0.025447,-0.042234,-0.043567,-0.823605,3.730166,-9.251195
73405112,-0.013989,-0.025047,-0.036639,-0.842759,3.643975,-9.308656
73445116,0.001998,0.035972,-0.026247,-0.799663,3.696647,-9.337387
73486089,-0.006795,-0.035173,-0.022516,-0.962469,3.711013,-9.342175
73525156,0.000533,-0.028245,-0.012257,-0.948104,3.610456,-9.375694
73565115,0.004263,-0.017587,-0.020384,-0.828394,3.711013,-9.313444
73605124,0.000133,-0.000666,0.014789,-0.847547,3.892972,-9.169792
73645134,0.019718,-0.019452,-0.001199,-0.981623,3.773262,-9.327810
73685155,0.002931,-0.012257,-0.012257,-0.928950,3.835511,-9.279925
73725204,0.005729,-0.032109,-0.021583,-0.924162,3.782839,-9.208099
73765147,0.049962,0.004530,-0.018253,-0.938527,3.739743,-9.265560
73806120,0.010792,-0.005729,-0.021051,-0.785298,3.797204,-9.327810
73846246,-0.013057,-0.022516,0.033974,-0.737414,3.744531,-9.313444
73886127,0.035173,-0.047697,0.030510,-0.952892,3.763685,-9.289502
73926100,0.018919,-0.009593,0.033441,-0.785298,3.797204,-9.232041
73966147,0.046231,-0.015455,-0.038504,-0.995988,3.830723,-9.217676
74006140,0.030643,-0.019452,-0.027446,-0.809240,3.778050,-9.188946
74046104,0.036372,-0.010126,-0.064617,-0.837971,3.869030,-9.217676
74086167,0.006795,-0.014123,0.010259,-0.790087,3.821146,-9.188946
74126138,0.019585,-0.005596,-0.037971,-0.900220,3.663129,-9.193734
74166186,0.009459,-0.001466,-0.029311,-0.713472,3.754108,-9.313444
74206126,0.035972,0.010259,-0.051827,-0.742203,3.897760,-9.284714
74246219,0.045432,0.021850,0.021051,-0.900220,3.639187,-9.255983
74286144,0.009992,-0.011591,-0.003064,-0.905008,3.754108,-9.284714
74326125,0.038371,0.009593,-0.003597,-0.785298,3.749320,-9.208099
74366163,-0.000266,0.007994,-0.005729,-0.799663,3.816358,-9.270349
74406154,0.035573,0.021450,0.032508,-0.914585,3.816358,-9.260772
74447107,0.009859,-0.033308,-0.016787,-0.919373,3.667917,-9.054871
74486170,0.008793,0.010259,-0.018253,-0.833182,3.720589,-9.337387
74527118,0.023049,0.006395,-0.016787,-0.737414,3.677494,-9.299079
74567101,-0.008394,-0.026113,0.026779,-0.794875,3.792415,-9.251195
74607112,0.012923,-0.015055,0.007861,-0.981623,3.864242,-9.279925
74647115,0.007328,-0.002132,-0.004930,-0.933739,3.730166,-9.380483
74687182,-0.013856,-0.017054,0.003997,-0.895431,3.768473,-9.299079
74727110,0.036905,-0.007861,-0.004930,-0.727837,3.797204,-9.188946
74767120,0.025980,-0.005729,-0.019052,-0.914585,3.782839,-9.265560
74807137,0.036239,0.005462,-0.004930,-0.928950,3.706224,-9.260772
74847134,0.020118,0.000799,0.015721,-0.785298,3.715801,-9.313444
74887149,0.026779,-0.024248,-0.001998,-0.914585,3.739743,-9.246407
74927119,-0.001466,0.049029,-0.003864,-0.895431,3.711013,-9.217676
74967130,0.020784,0.004663,-0.023049,-0.823605,3.778050,-9.141062
75007121,0.022116,0.011458,-0.007328,-0.770933,3.821146,-9.145850
75047138,0.019851,-0.009859,-0.016787,-0.914585,3.758897,-9.179369
75087127,0.069413,0.007461,0.011058,-0.981623,3.797204,-9.289502
75127143,0.040636,-0.045565,-0.017853,-0.804452,3.787627,-9.208099
75167173,0.007194,0.014389,-0.019452,-0.857124,3.715801,-9.227253
75208110,-0.040103,0.003464,-0.038904,-0.895431,3.916914,-9.289502
75248112,-0.002531,-0.013989,0.019319,-0.943315,3.725378,-9.141062
75288233,0.029178,-0.013989,-0.021051,-0.823605,3.763685,-9.351752
75328172,-0.012391,0.017187,-0.015322,-0.948104,3.854665,-9.294291
75368185,0.027046,-0.016787,-0.027312,-0.952892,3.849876,-9.241618
75408127,0.029577,-0.002398,-0.007861,-0.881066,3.677494,-9.270349
75448167,0.044499,0.006395,-0.031309,-0.905008,3.739743,-9.188946
75488135,-0.007594,-0.015188,-0.000933,-0.928950,3.816358,-9.222465
75528134,0.048363,-0.023848,-0.004263,-0.890643,3.744531,-9.299079
75568168,-0.001865,0.008527,0.027579,-0.952892,3.758897,-9.294291
75608130,0.035573,0.022916,-0.013323,-0.814029,3.701436,-9.313444
75648188,0.008926,-0.011991,0.021983,-0.689530,3.840300,-9.289502
75688196,0.017853,-0.003597,-0.017853,-1.058237,3.773262,-9.404425
75729120,-0.012524,-0.005462,-0.003997,-0.761356,3.758897,-9.121908
75768192,0.005063,0.019452,-0.008527,-0.814029,3.888184,-9.203311
75809082,-0.014789,0.008660,-0.035306,-1.019930,3.720589,-9.390059
75848178,0.021983,-0.034773,0.025714,-0.890643,3.797204,-9.212888
75889195,0.020917,0.018253,-0.019185,-1.019930,3.682282,-9.251195
75929146,0.015055,-0.016121,0.012124,-0.962469,3.639187,-9.251195
75969096,0.030510,0.013989,0.020917,-0.928950,3.658340,-9.184157
76009110,0.031443,0.007994,-0.011058,-0.914585,3.773262,-9.227253
76049154,0.010126,-0.006528,-0.004930,-0.823605,3.715801,-9.232041
76089155,0.019452,0.016920,-0.019985,-0.861913,3.821146,-9.241618
76129131,-0.007461,0.021850,-0.053825,-0.804452,3.840300,-9.299079
76169191,0.015855,-0.028911,-0.018253,-0.837971,3.754108,-9.265560
76209129,0.013456,0.022783,-0.016254,-0.871489,3.701436,-9.380483
76249144,0.037571,0.022649,0.019585,-0.756568,3.816358,-9.208099
76289131,0.021317,-0.006395,-0.015588,-0.972046,3.711013,-9.255983
76329276,0.013456,-0.024648,0.007594,-0.900220,3.816358,-9.251195
76369157,0.024381,0.003730,-0.007328,-0.890643,3.758897,-9.313444
76410120,-0.003464,-0.009992,0.013190,-0.890643,3.825934,-9.131485
76450127,0.044366,0.023315,-0.017587,-0.943315,3.715801,-9.260772
76490146,0.001732,0.001466,-0.004796,-0.842759,3.543418,-9.208099
76530168,0.065949,-0.043034,0.001599,-0.876278,3.778050,-9.255983
76570150,0.038371,0.000000,-0.042634,-0.852336,3.639187,-9.270349
76610165,0.006795,0.043300,-0.015721,-0.861913,3.734955,-9.203311
76650149,0.059421,0.021583,0.002665,-0.809240,3.725378,-9.193734
76690243,-0.011458,-0.015721,-0.040636,-0.857124,3.787627,-9.246407
76730162,0.010126,-0.011858,-0.022516,-0.905008,3.816358,-9.332599
76770186,0.008926,0.009859,-0.047697,-0.818817,3.758897,-9.265560
76810182,-0.016121,-0.006662,0.028645,-0.895431,3.725378,-9.236830
76851141,-0.012124,-0.002798,-0.002132,-0.842759,3.696647,-9.203311
76890199,0.006928,-0.030910,-0.012391,-0.900220,3.739743,-9.356541
76930165,0.021583,0.010658,-0.025181,-0.909797,3.773262,-9.212888
76972721,0.021317,-0.003597,-0.015188,-0.871489,3.691859,-9.217676
77015113,0.038504,0.019319,-0.004530,-0.746991,3.624821,-9.236830
77051193,0.020651,-0.026913,-0.044100,-0.847547,3.763685,-9.145850
77091189,0.047297,-0.008660,0.006795,-0.852336,3.687071,-9.203311
77131127,0.010259,0.005063,0.029844,-0.866701,3.687071,-9.366117
77171239,-0.013323,0.021717,-0.017587,-0.919373,3.768473,-9.289502
77211301,0.019585,-0.012257,-0.022116,-0.857124,3.758897,-9.212888
77251199,0.007727,0.015055,-0.011724,-0.881066,3.586514,-9.198523
77291196,0.031576,-0.009992,-0.018919,-0.656011,3.610456,-9.236830
77331168,0.021583,0.010259,-0.014389,-0.723049,3.677494,-9.284714
77371192,-0.007594,-0.015588,-0.021583,-0.718261,3.811569,-9.270349
77411233,0.050894,0.020651,-0.001332,-0.919373,3.816358,-9.361329
77451240,0.007861,-0.011325,-0.029044,-0.871489,3.711013,-9.380483
77491301,0.017187,0.011991,0.023982,-0.837971,3.739743,-9.289502
77532116,0.000133,0.002265,-0.004796,-0.933739,3.744531,-9.260772
77572125,0.014789,-0.045565,-0.001599,-0.909797,3.782839,-9.222465
77612139,0.011325,-0.025047,-0.002398,-0.967258,3.711013,-9.289502
77652128,0.045965,0.007861,0.006395,-0.900220,3.701436,-9.251195
77692195,-0.002531,-0.028511,-0.014256,-0.881066,3.653552,-9.212888
77732210,0.015455,-0.000266,-0.006795,-0.737414,3.725378,-9.275137
77772165,-0.021184,0.000266,-0.021717,-0.972046,3.816358,-9.208099
77812156,0.027312,-0.002931,0.014522,-0.885855,3.701436,-9.236830
77852158,0.003864,-0.015455,0.004663,-0.828394,3.725378,-9.246407
77892201,0.030910,-0.027579,-0.013456,-0.905008,3.801992,-9.217676
77932183,-0.019452,0.034907,0.009859,-0.957681,3.845088,-9.308656
77972164,-0.012257,-0.033308,0.033841,-0.890643,3.734955,-9.203311
78013139,0.016920,-0.000933,-0.031709,-0.976834,3.701436,-9.232041
78052242,0.027845,-0.016521,0.001599,-0.938527,3.634398,-9.227253
78092284,0.015322,0.008260,0.019052,-0.823605,3.787627,-9.313444
78133169,0.040369,-0.009459,-0.005329,-0.881066,3.869030,-9.198523
78173132,0.014522,0.013989,-0.002132,-0.775721,3.806781,-9.236830
78213151,0.015988,0.013057,0.003464,-0.919373,3.782839,-9.236830
78253173,0.017320,-0.006528,-0.000266,-0.866701,3.739743,-9.251195
78293169,0.024248,-0.002132,0.012124,-0.823605,3.773262,-9.332599
78333189,0.037172,0.011325,-0.049162,-0.837971,3.778050,-9.308656
78373171,-0.007328,-0.003597,-0.035040,-0.924162,3.864242,-9.284714
78413212,0.021583,-0.003997,-0.027579,-0.794875,3.773262,-9.308656
78453181,-0.011191,0.038637,-0.003597,-0.837971,3.797204,-9.236830
78493187,0.017187,-0.003730,-0.015322,-0.885855,3.830723,-9.294291
78533186,0.008394,0.011191,-0.029178,-0.842759,3.749320,-9.198523
78573202,0.013989,0.016654,0.041302,-0.919373,3.749320,-9.327810
78614129,0.003997,0.003331,-0.000266,-1.043872,3.782839,-9.232041
78654128,0.002931,0.001732,0.000666,-0.804452,3.648763,-9.217676
78694144,0.011591,0.020784,0.014655,-0.814029,3.667917,-9.193734
78734156,0.032508,0.046098,-0.007861,-0.842759,3.897760,-9.351752
78774173,0.035173,0.008926,-0.040103,-0.967258,3.696647,-9.303867
78814150,0.021450,0.001998,-0.033841,-0.919373,3.691859,-9.332599
78854154,0.010658,-0.037571,-0.005729,-0.746991,3.734955,-9.284714
78894227,0.014123,-0.020118,-0.018253,-0.861913,3.787627,-9.284714
78934195,0.035306,-0.006129,-0.009593,-0.871489,3.792415,-9.222465
78974216,0.046231,-0.032642,0.009060,-0.938527,3.792415,-9.217676
79014206,0.009459,-0.018253,0.023982,-0.909797,3.778050,-9.370906
79054177,0.041035,-0.005729,-0.005196,-0.981623,3.787627,-9.255983
79095135,0.027712,-0.001332,-0.046364,-0.976834,3.778050,-9.260772
79135156,-0.000266,-0.000266,-0.004263,-0.962469,3.701436,-9.284714
79175146,0.016387,-0.017187,-0.009193,-0.881066,3.691859,-9.313444
79215168,0.017453,0.023315,-0.024115,-0.881066,3.739743,-9.279925
79255191,0.027979,-0.015055,-0.020251,-0.895431,3.730166,-9.093178
79295197,0.003331,-0.009593,0.017853,-0.799663,3.754108,-9.169792
79335150,0.041302,0.017720,0.003864,-0.828394,3.749320,-9.299079
79375178,0.015855,-0.002798,0.012124,-0.737414,3.811569,-9.255983
79415211,0.036639,-0.015588,-0.009193,-0.948104,3.734955,-9.351752
79455232,0.012790,-0.014655,-0.036106,-0.814029,3.672705,-9.279925
79495265,0.020651,0.000799,-0.012124,-0.962469,3.811569,-9.251195
79535163,0.031309,0.008394,0.000266,-0.967258,3.878607,-9.131485
79575178,0.041835,-0.011858,0.031176,-0.837971,3.691859,-9.313444
79615215,0.013057,-0.019185,-0.014389,-0.919373,3.639187,-9.150639
79655290,0.024115,-0.007861,0.011191,-0.847547,3.825934,-9.174581
79695244,0.010925,0.034907,-0.011991,-0.833182,3.749320,-9.227253
79736149,-0.005596,0.008394,-0.027579,-0.852336,3.778050,-9.188946
79776151,0.042501,-0.005196,-0.021450,-0.861913,3.696647,-9.126697
79816176,0.034240,-0.013323,0.016387,-0.847547,3.869030,-9.155427
79856219,0.028911,0.017853,0.024515,-0.837971,3.806781,-9.193734
79896263,0.039570,0.001066,-0.011858,-0.928950,3.734955,-9.165004
79936170,0.034240,0.007994,-0.017587,-0.866701,3.734955,-9.260772
79976199,-0.008793,0.012124,-0.006262,-0.799663,3.648763,-9.212888
80016209,0.002398,0.003730,-0.007861,-0.914585,3.854665,-9.193734
80056224,-0.008260,-0.013989,-0.004263,-0.871489,3.773262,-9.366117
80096203,-0.020784,0.009726,-0.023049,-0.828394,3.854665,-9.375694
80136168,0.012524,-0.051294,0.019319,-0.842759,3.840300,-9.332599
80176204,0.036639,0.039836,0.008793,-0.809240,3.936068,-9.208099
80216191,-0.006395,0.004930,0.012391,-0.732626,3.643975,-9.212888
80256224,0.026380,-0.026779,-0.041035,-0.976834,3.806781,-9.289502
80296255,0.020651,-0.007061,0.004263,-0.766145,3.821146,-9.299079
80337158,0.017453,-0.037305,-0.016254,-0.900220,3.782839,-9.241618
80377191,0.027712,-0.011191,-0.021051,-0.876278,3.653552,-9.275137
80417133,-0.002265,-0.030243,0.026646,-0.732626,3.816358,-9.227253
